{
  "resourceType": "Bundle",
  "id": "c1364268-d5a8-4f6c-a470-249f6afd8966",
  "meta": {
    "lastUpdated": "2025-07-23T12:29:52.255+00:00"
  },
  "type": "searchset",
  "link": [ {
    "relation": "self",
    "url": "https://hapi.fhir.org/baseR4?_getpages=c1364268-d5a8-4f6c-a470-249f6afd8966&_getpagesoffset=50&_count=50&_format=json&_pretty=true&_include=Patient%3A*&_bundletype=searchset"
  }, {
    "relation": "next",
    "url": "https://hapi.fhir.org/baseR4?_getpages=c1364268-d5a8-4f6c-a470-249f6afd8966&_getpagesoffset=100&_count=50&_format=json&_pretty=true&_include=Patient%3A*&_bundletype=searchset"
  }, {
    "relation": "previous",
    "url": "https://hapi.fhir.org/baseR4?_getpages=c1364268-d5a8-4f6c-a470-249f6afd8966&_getpagesoffset=0&_count=50&_format=json&_pretty=true&_include=Patient%3A*&_bundletype=searchset"
  } ],
  "entry": [ {
    "fullUrl": "https://hapi.fhir.org/baseR4/Patient/597362",
    "resource": {
      "resourceType": "Patient",
      "id": "597362",
      "meta": {
        "versionId": "1",
        "lastUpdated": "2020-02-04T04:08:08.190+00:00",
        "source": "#gq84cqAWNhTWFyKN"
      },
      "text": {
        "status": "generated",
        "div": "<div xmlns=\"http://www.w3.org/1999/xhtml\"><div class=\"hapiHeaderText\">Ohlalalalalal <b>JUNIPER </b></div><table class=\"hapiPropertyTable\"><tbody/></table></div>"
      },
      "name": [ {
        "family": "Juniper",
        "given": [ "Ohlalalalalal" ]
      } ]
    },
    "search": {
      "mode": "match"
    }
  }, {
    "fullUrl": "https://hapi.fhir.org/baseR4/Patient/597364",
    "resource": {
      "resourceType": "Patient",
      "id": "597364",
      "meta": {
        "versionId": "1",
        "lastUpdated": "2020-02-04T04:15:08.248+00:00",
        "source": "#8BM5oPrjqaVbans8"
      },
      "text": {
        "status": "generated",
        "div": "<div xmlns=\"http://www.w3.org/1999/xhtml\"><div class=\"hapiHeaderText\">Ryan <b>JUNIPER </b></div><table class=\"hapiPropertyTable\"><tbody><tr><td>Identifier</td><td>mredington3</td></tr><tr><td>Address</td><td><span>339 14th st </span><br/><span>atlanta </span><span>GA </span></td></tr></tbody></table></div>"
      },
      "identifier": [ {
        "value": "mredington3"
      } ],
      "name": [ {
        "family": "Juniper",
        "given": [ "Ryan" ]
      } ],
      "telecom": [ {
        "system": "email",
        "value": "kkskrishnasai99@sdfsd.de",
        "use": "mobile"
      }, {
        "system": "phone",
        "value": "0405687522",
        "use": "mobile"
      } ],
      "gender": "female",
      "address": [ {
        "line": [ "339 14th st" ],
        "city": "atlanta",
        "state": "GA",
        "postalCode": "30309"
      } ]
    },
    "search": {
      "mode": "match"
    }
  }, {
    "fullUrl": "https://hapi.fhir.org/baseR4/Patient/597352",
    "resource": {
      "resourceType": "Patient",
      "id": "597352",
      "meta": {
        "versionId": "2",
        "lastUpdated": "2020-02-04T04:16:13.478+00:00",
        "source": "#GfH6bUwFapCG7qAf"
      },
      "text": {
        "status": "generated",
        "div": "<div xmlns=\"http://www.w3.org/1999/xhtml\"><div class=\"hapiHeaderText\">First Name <b>LAST NAME </b></div><table class=\"hapiPropertyTable\"><tbody><tr><td>Identifier</td><td>akhazane3</td></tr><tr><td>Address</td><td><span>20 Drawbridge Street </span><br/><span>Des Moines </span><span>Iowa </span><span>United States </span></td></tr><tr><td>Date of birth</td><td><span>16 March 1995</span></td></tr></tbody></table></div>"
      },
      "identifier": [ {
        "value": "akhazane3"
      } ],
      "name": [ {
        "family": "Last Name",
        "given": [ "First Name" ]
      } ],
      "telecom": [ {
        "system": "phone",
        "value": "+1 555-555-555",
        "use": "home"
      } ],
      "gender": "male",
      "birthDate": "1995-03-16",
      "address": [ {
        "line": [ "20 Drawbridge Street" ],
        "city": "Des Moines",
        "state": "Iowa",
        "postalCode": "300318",
        "country": "United States"
      } ]
    },
    "search": {
      "mode": "match"
    }
  }, {
    "fullUrl": "https://hapi.fhir.org/baseR4/Patient/597366",
    "resource": {
      "resourceType": "Patient",
      "id": "597366",
      "meta": {
        "versionId": "1",
        "lastUpdated": "2020-02-04T04:17:18.113+00:00",
        "source": "#5WHdtIHhRCAVHXnw",
        "profile": [ "/esushrut/ehr/resource/Patient" ]
      },
      "contained": [ {
        "resourceType": "Patient",
        "id": "1",
        "meta": {
          "profile": [ "/esushrut/ehr/resource/Organization" ]
        },
        "identifier": [ {
          "use": "secondary",
          "type": {
            "text": "Patient Hospital Code"
          },
          "value": "96101"
        }, {
          "use": "secondary",
          "type": {
            "text": "Hospital NIN Code"
          },
          "value": "nincode1"
        } ],
        "active": true,
        "telecom": [ {
          "system": "phone",
          "value": "0612-2451070",
          "use": "work",
          "rank": 1
        }, {
          "system": "fax",
          "rank": 1
        }, {
          "system": "email",
          "value": "admin@aiimspatna.org",
          "rank": 1
        } ],
        "address": [ {
          "use": "home",
          "type": "physical",
          "text": "[Phulwarisharif, , ], Patna, 801507, ",
          "line": [ "Phulwarisharif, , " ],
          "city": "Patna",
          "postalCode": "801507"
        } ]
      } ],
      "identifier": [ {
        "use": "secondary",
        "type": {
          "text": "Patient Central Registration Number"
        },
        "value": "961011900007388"
      } ],
      "active": true,
      "name": [ {
        "use": "official",
        "given": [ "Pywe" ],
        "suffix": [ "MBBS" ]
      } ],
      "telecom": [ {
        "system": "phone",
        "value": "7485208464",
        "use": "mobile",
        "rank": 1
      }, {
        "system": "phone",
        "value": "7485208464",
        "use": "home",
        "rank": 2
      } ],
      "gender": "female",
      "birthDate": "1983-06-27",
      "deceasedBoolean": false,
      "address": [ {
        "use": "home",
        "type": "physical",
        "text": " CITY, Patna, India",
        "city": "CITY",
        "district": "Patna",
        "country": "India"
      } ],
      "contact": [ {
        "name": {
          "given": [ "Asdfa" ]
        }
      } ],
      "managingOrganization": {
        "reference": "#1"
      }
    },
    "search": {
      "mode": "match"
    }
  }, {
    "fullUrl": "https://hapi.fhir.org/baseR4/Patient/597368",
    "resource": {
      "resourceType": "Patient",
      "id": "597368",
      "meta": {
        "versionId": "1",
        "lastUpdated": "2020-02-04T04:21:43.121+00:00",
        "source": "#TMbRbfEDxpAcvQ4D"
      },
      "text": {
        "status": "generated",
        "div": "<div xmlns=\"http://www.w3.org/1999/xhtml\"><div class=\"hapiHeaderText\">Greg <b>JUNIPER </b></div><table class=\"hapiPropertyTable\"><tbody/></table></div>"
      },
      "name": [ {
        "family": "Juniper",
        "given": [ "Greg" ]
      } ]
    },
    "search": {
      "mode": "match"
    }
  }, {
    "fullUrl": "https://hapi.fhir.org/baseR4/Patient/597369",
    "resource": {
      "resourceType": "Patient",
      "id": "597369",
      "meta": {
        "versionId": "1",
        "lastUpdated": "2020-02-04T04:27:37.042+00:00",
        "source": "#yf7pthoMMDmHy1fI"
      },
      "text": {
        "status": "generated",
        "div": "<div xmlns=\"http://www.w3.org/1999/xhtml\"><table class=\"hapiPropertyTable\"><tbody/></table></div>"
      }
    },
    "search": {
      "mode": "match"
    }
  }, {
    "fullUrl": "https://hapi.fhir.org/baseR4/Patient/597367",
    "resource": {
      "resourceType": "Patient",
      "id": "597367",
      "meta": {
        "versionId": "3",
        "lastUpdated": "2020-02-04T04:31:38.542+00:00",
        "source": "#UBDmAJ9XxMa1LACU"
      },
      "text": {
        "status": "generated",
        "div": "<div xmlns=\"http://www.w3.org/1999/xhtml\"><div class=\"hapiHeaderText\">Ryan <b>JUNIPER </b></div><table class=\"hapiPropertyTable\"><tbody><tr><td>Identifier</td><td>mredington3</td></tr><tr><td>Address</td><td><span>339 14th st </span><br/><span>atlanta </span><span>GA </span></td></tr></tbody></table></div>"
      },
      "identifier": [ {
        "value": "mredington3"
      } ],
      "name": [ {
        "family": "Juniper",
        "given": [ "Ryan" ]
      } ],
      "telecom": [ {
        "system": "email",
        "value": "kkskrishnasai99@sdfsd.de",
        "use": "mobile"
      }, {
        "system": "phone",
        "value": "561-932-9292",
        "use": "mobile"
      } ],
      "gender": "female",
      "address": [ {
        "line": [ "765 10th st" ],
        "city": "miami",
        "state": "FL",
        "postalCode": "30301"
      } ]
    },
    "search": {
      "mode": "match"
    }
  }, {
    "fullUrl": "https://hapi.fhir.org/baseR4/Patient/597370",
    "resource": {
      "resourceType": "Patient",
      "id": "597370",
      "meta": {
        "versionId": "1",
        "lastUpdated": "2020-02-04T04:31:56.284+00:00",
        "source": "#E5o1MsSe3w0unrmY"
      },
      "text": {
        "status": "generated",
        "div": "<div xmlns=\"http://www.w3.org/1999/xhtml\"><table class=\"hapiPropertyTable\"><tbody><tr><td>Address</td><td><span>123 </span><br/><span>Los Angeles </span><span>CA </span></td></tr></tbody></table></div>"
      },
      "gender": "female",
      "address": [ {
        "line": [ "123" ],
        "city": "Los Angeles",
        "state": "CA"
      } ]
    },
    "search": {
      "mode": "match"
    }
  }, {
    "fullUrl": "https://hapi.fhir.org/baseR4/Patient/597371",
    "resource": {
      "resourceType": "Patient",
      "id": "597371",
      "meta": {
        "versionId": "1",
        "lastUpdated": "2020-02-04T04:33:16.766+00:00",
        "source": "#Vbldh4bu3GUqnAjp"
      },
      "text": {
        "status": "generated",
        "div": "<div xmlns=\"http://www.w3.org/1999/xhtml\"><table class=\"hapiPropertyTable\"><tbody><tr><td>Address</td><td><span>123 </span><br/><span>Los Angeles </span><span>CA </span></td></tr></tbody></table></div>"
      },
      "gender": "female",
      "address": [ {
        "line": [ "123" ],
        "city": "Los Angeles",
        "state": "CA"
      } ]
    },
    "search": {
      "mode": "match"
    }
  }, {
    "fullUrl": "https://hapi.fhir.org/baseR4/Patient/597373",
    "resource": {
      "resourceType": "Patient",
      "id": "597373",
      "meta": {
        "versionId": "1",
        "lastUpdated": "2020-02-04T04:33:52.963+00:00",
        "source": "#GZJAG1l0uKF755JX"
      },
      "text": {
        "status": "generated",
        "div": "<div xmlns=\"http://www.w3.org/1999/xhtml\"><table class=\"hapiPropertyTable\"><tbody/></table></div>"
      },
      "gender": "male"
    },
    "search": {
      "mode": "match"
    }
  }, {
    "fullUrl": "https://hapi.fhir.org/baseR4/Patient/597374",
    "resource": {
      "resourceType": "Patient",
      "id": "597374",
      "meta": {
        "versionId": "1",
        "lastUpdated": "2020-02-04T04:34:03.599+00:00",
        "source": "#fKHTBFczJivq7YU5"
      },
      "text": {
        "status": "generated",
        "div": "<div xmlns=\"http://www.w3.org/1999/xhtml\"><table class=\"hapiPropertyTable\"><tbody><tr><td>Address</td><td><span>123 </span><br/><span>Los Angeles </span><span>CA </span></td></tr></tbody></table></div>"
      },
      "gender": "female",
      "address": [ {
        "line": [ "123" ],
        "city": "Los Angeles",
        "state": "CA"
      } ]
    },
    "search": {
      "mode": "match"
    }
  }, {
    "fullUrl": "https://hapi.fhir.org/baseR4/Patient/597375",
    "resource": {
      "resourceType": "Patient",
      "id": "597375",
      "meta": {
        "versionId": "1",
        "lastUpdated": "2020-02-04T04:34:25.530+00:00",
        "source": "#bPISVvM1wVGIPd9K"
      },
      "text": {
        "status": "generated",
        "div": "<div xmlns=\"http://www.w3.org/1999/xhtml\"><div class=\"hapiHeaderText\">Greg <b>JUNIPER </b></div><table class=\"hapiPropertyTable\"><tbody/></table></div>"
      },
      "name": [ {
        "family": "Juniper",
        "given": [ "Greg" ]
      } ],
      "telecom": [ {
        "use": "home"
      }, {
        "system": "phone",
        "value": "(03) 5555 6473",
        "use": "work",
        "rank": 1
      }, {
        "system": "phone",
        "value": "(03) 3410 5613",
        "use": "mobile",
        "rank": 2
      }, {
        "system": "phone",
        "value": "(03) 5555 8834",
        "use": "old",
        "period": {
          "end": "2014"
        }
      } ]
    },
    "search": {
      "mode": "match"
    }
  }, {
    "fullUrl": "https://hapi.fhir.org/baseR4/Patient/597376",
    "resource": {
      "resourceType": "Patient",
      "id": "597376",
      "meta": {
        "versionId": "1",
        "lastUpdated": "2020-02-04T04:34:58.372+00:00",
        "source": "#heLaSKkvXGIJutK7"
      },
      "text": {
        "status": "generated",
        "div": "<div xmlns=\"http://www.w3.org/1999/xhtml\"><div class=\"hapiHeaderText\">Zhiyu <b>LIU </b></div><table class=\"hapiPropertyTable\"><tbody><tr><td>Identifier</td><td>zliu721</td></tr><tr><td>Address</td><td><span>abdcdeddeded </span><br/><span>Ithaca </span><span>New York </span><span>USA </span></td></tr><tr><td>Date of birth</td><td><span>09 April 1983</span></td></tr></tbody></table></div>"
      },
      "identifier": [ {
        "type": {
          "coding": [ {
            "system": "http://h17,org/fhir/v2/0203",
            "code": "MR"
          } ]
        },
        "value": "zliu721"
      } ],
      "name": [ {
        "family": "Liu",
        "given": [ "Zhiyu" ]
      } ],
      "telecom": [ {
        "system": "phone",
        "value": "1(607)280-3307",
        "use": "home"
      } ],
      "gender": "male",
      "birthDate": "1983-04-09",
      "address": [ {
        "use": "home",
        "line": [ "abdcdeddeded" ],
        "city": "Ithaca",
        "state": "New York",
        "postalCode": "14850",
        "country": "USA"
      } ]
    },
    "search": {
      "mode": "match"
    }
  }, {
    "fullUrl": "https://hapi.fhir.org/baseR4/Patient/597377",
    "resource": {
      "resourceType": "Patient",
      "id": "597377",
      "meta": {
        "versionId": "1",
        "lastUpdated": "2020-02-04T04:35:22.952+00:00",
        "source": "#io1WLMwsgew09hlG"
      },
      "text": {
        "status": "generated",
        "div": "<div xmlns=\"http://www.w3.org/1999/xhtml\"><div class=\"hapiHeaderText\">Zhiyu <b>LIU </b></div><table class=\"hapiPropertyTable\"><tbody><tr><td>Identifier</td><td>zliu721</td></tr><tr><td>Address</td><td><span>abdcdeddeded </span><br/><span>Ithaca </span><span>New York </span><span>USA </span></td></tr><tr><td>Date of birth</td><td><span>09 April 1983</span></td></tr></tbody></table></div>"
      },
      "identifier": [ {
        "type": {
          "coding": [ {
            "system": "http://h17,org/fhir/v2/0203",
            "code": "zliu721"
          } ]
        },
        "value": "zliu721"
      } ],
      "name": [ {
        "family": "Liu",
        "given": [ "Zhiyu" ]
      } ],
      "telecom": [ {
        "system": "phone",
        "value": "1(607)280-3307",
        "use": "home"
      } ],
      "gender": "male",
      "birthDate": "1983-04-09",
      "address": [ {
        "use": "home",
        "line": [ "abdcdeddeded" ],
        "city": "Ithaca",
        "state": "New York",
        "postalCode": "14850",
        "country": "USA"
      } ]
    },
    "search": {
      "mode": "match"
    }
  }, {
    "fullUrl": "https://hapi.fhir.org/baseR4/Patient/597378",
    "resource": {
      "resourceType": "Patient",
      "id": "597378",
      "meta": {
        "versionId": "1",
        "lastUpdated": "2020-02-04T04:35:46.368+00:00",
        "source": "#GKlH5c6eD0rxnnFQ"
      },
      "text": {
        "status": "generated",
        "div": "<div xmlns=\"http://www.w3.org/1999/xhtml\"><div class=\"hapiHeaderText\">Zhiyu <b>LIU </b></div><table class=\"hapiPropertyTable\"><tbody><tr><td>Identifier</td><td>zliu721</td></tr><tr><td>Address</td><td><span>abdcdeddeded </span><br/><span>Ithaca </span><span>New York </span><span>USA </span></td></tr><tr><td>Date of birth</td><td><span>09 April 1983</span></td></tr></tbody></table></div>"
      },
      "identifier": [ {
        "value": "zliu721"
      } ],
      "name": [ {
        "family": "Liu",
        "given": [ "Zhiyu" ]
      } ],
      "telecom": [ {
        "system": "phone",
        "value": "1(607)280-3307",
        "use": "home"
      } ],
      "gender": "male",
      "birthDate": "1983-04-09",
      "address": [ {
        "use": "home",
        "line": [ "abdcdeddeded" ],
        "city": "Ithaca",
        "state": "New York",
        "postalCode": "14850",
        "country": "USA"
      } ]
    },
    "search": {
      "mode": "match"
    }
  }, {
    "fullUrl": "https://hapi.fhir.org/baseR4/Patient/597380",
    "resource": {
      "resourceType": "Patient",
      "id": "597380",
      "meta": {
        "versionId": "1",
        "lastUpdated": "2020-02-04T04:36:58.743+00:00",
        "source": "#5ceGsJodahAEyPzV"
      },
      "text": {
        "status": "generated",
        "div": "<div xmlns=\"http://www.w3.org/1999/xhtml\"><div class=\"hapiHeaderText\">Charles <b>CHARLES </b></div><table class=\"hapiPropertyTable\"><tbody/></table></div>"
      },
      "name": [ {
        "family": "Charles",
        "given": [ "Charles" ]
      } ],
      "gender": "male"
    },
    "search": {
      "mode": "match"
    }
  }, {
    "fullUrl": "https://hapi.fhir.org/baseR4/Patient/597381",
    "resource": {
      "resourceType": "Patient",
      "id": "597381",
      "meta": {
        "versionId": "1",
        "lastUpdated": "2020-02-04T04:37:09.138+00:00",
        "source": "#VbCGmIqOr23Rt71S"
      },
      "text": {
        "status": "generated",
        "div": "<div xmlns=\"http://www.w3.org/1999/xhtml\"><div class=\"hapiHeaderText\">Neil <b>CHARLES </b></div><table class=\"hapiPropertyTable\"><tbody/></table></div>"
      },
      "name": [ {
        "family": "Charles",
        "given": [ "Neil" ]
      } ],
      "gender": "male"
    },
    "search": {
      "mode": "match"
    }
  }, {
    "fullUrl": "https://hapi.fhir.org/baseR4/Patient/597382",
    "resource": {
      "resourceType": "Patient",
      "id": "597382",
      "meta": {
        "versionId": "1",
        "lastUpdated": "2020-02-04T04:37:32.793+00:00",
        "source": "#45jZTRYobT429Yov"
      },
      "text": {
        "status": "generated",
        "div": "<div xmlns=\"http://www.w3.org/1999/xhtml\"><div class=\"hapiHeaderText\">Neil <b>CHARLES </b></div><table class=\"hapiPropertyTable\"><tbody><tr><td>Date of birth</td><td><span>01 January 1995</span></td></tr></tbody></table></div>"
      },
      "name": [ {
        "family": "Charles",
        "given": [ "Neil" ]
      } ],
      "gender": "male",
      "birthDate": "1995-01-01"
    },
    "search": {
      "mode": "match"
    }
  }, {
    "fullUrl": "https://hapi.fhir.org/baseR4/Patient/597384",
    "resource": {
      "resourceType": "Patient",
      "id": "597384",
      "meta": {
        "versionId": "1",
        "lastUpdated": "2020-02-04T04:39:09.822+00:00",
        "source": "#i79SbovPnt0ey7Fm"
      },
      "text": {
        "status": "generated",
        "div": "<div xmlns=\"http://www.w3.org/1999/xhtml\"><div class=\"hapiHeaderText\">Neil <b>CHARLES </b></div><table class=\"hapiPropertyTable\"><tbody><tr><td>Date of birth</td><td><span>01 January 1995</span></td></tr></tbody></table></div>"
      },
      "name": [ {
        "family": "Charles",
        "given": [ "Neil" ]
      } ],
      "telecom": [ {
        "system": "phone",
        "value": "1(987)634-6786",
        "use": "home"
      } ],
      "gender": "male",
      "birthDate": "1995-01-01"
    },
    "search": {
      "mode": "match"
    }
  }, {
    "fullUrl": "https://hapi.fhir.org/baseR4/Patient/597385",
    "resource": {
      "resourceType": "Patient",
      "id": "597385",
      "meta": {
        "versionId": "1",
        "lastUpdated": "2020-02-04T04:40:42.652+00:00",
        "source": "#jXcwoXRdNEh0w7B4"
      },
      "text": {
        "status": "generated",
        "div": "<div xmlns=\"http://www.w3.org/1999/xhtml\"><div class=\"hapiHeaderText\">Neil <b>CHARLES </b></div><table class=\"hapiPropertyTable\"><tbody><tr><td>Identifier</td><td>ncharles3</td></tr><tr><td>Date of birth</td><td><span>01 January 1995</span></td></tr></tbody></table></div>"
      },
      "identifier": [ {
        "value": "ncharles3"
      } ],
      "name": [ {
        "family": "Charles",
        "given": [ "Neil" ]
      } ],
      "telecom": [ {
        "system": "phone",
        "value": "1(987)634-6786",
        "use": "home"
      } ],
      "gender": "male",
      "birthDate": "1995-01-01"
    },
    "search": {
      "mode": "match"
    }
  }, {
    "fullUrl": "https://hapi.fhir.org/baseR4/Patient/597386",
    "resource": {
      "resourceType": "Patient",
      "id": "597386",
      "meta": {
        "versionId": "1",
        "lastUpdated": "2020-02-04T04:41:00.194+00:00",
        "source": "#xoePe8BcJBKc4PqA"
      },
      "text": {
        "status": "generated",
        "div": "<div xmlns=\"http://www.w3.org/1999/xhtml\"><div class=\"hapiHeaderText\">Zhiyu <b>LIU </b></div><table class=\"hapiPropertyTable\"><tbody><tr><td>Identifier</td><td>zliu721</td></tr><tr><td>Address</td><td><span>abdcdeddeded </span><br/><span>Ithaca </span><span>New York </span><span>USA </span></td></tr><tr><td>Date of birth</td><td><span>09 April 1983</span></td></tr></tbody></table></div>"
      },
      "identifier": [ {
        "value": "zliu721"
      } ],
      "name": [ {
        "family": "Liu",
        "given": [ "Zhiyu" ]
      } ],
      "telecom": [ {
        "system": "phone",
        "value": "1(607)280-3307",
        "use": "home"
      } ],
      "gender": "male",
      "birthDate": "1983-04-09",
      "address": [ {
        "use": "home",
        "line": [ "abdcdeddeded" ],
        "city": "Ithaca",
        "state": "New York",
        "postalCode": "14850",
        "country": "USA"
      } ]
    },
    "search": {
      "mode": "match"
    }
  }, {
    "fullUrl": "https://hapi.fhir.org/baseR4/Patient/597387",
    "resource": {
      "resourceType": "Patient",
      "id": "597387",
      "meta": {
        "versionId": "1",
        "lastUpdated": "2020-02-04T04:42:57.307+00:00",
        "source": "#nyCcEn2UgYeZbHWc"
      },
      "text": {
        "status": "generated",
        "div": "<div xmlns=\"http://www.w3.org/1999/xhtml\"><div class=\"hapiHeaderText\">Neil <b>CHARLES </b></div><table class=\"hapiPropertyTable\"><tbody><tr><td>Identifier</td><td>ncharles3</td></tr><tr><td>Address</td><td><span>12345 Six Flags </span><br/><span>Las Vegas </span><span>Nevada </span><span>US </span></td></tr><tr><td>Date of birth</td><td><span>01 January 1995</span></td></tr></tbody></table></div>"
      },
      "identifier": [ {
        "value": "ncharles3"
      } ],
      "name": [ {
        "family": "Charles",
        "given": [ "Neil" ]
      } ],
      "telecom": [ {
        "system": "phone",
        "value": "1(987)634-6786",
        "use": "home"
      } ],
      "gender": "male",
      "birthDate": "1995-01-01",
      "address": [ {
        "use": "home",
        "text": "54 raven st",
        "line": [ "12345 Six Flags" ],
        "city": "Las Vegas",
        "state": "Nevada",
        "country": "US"
      } ]
    },
    "search": {
      "mode": "match"
    }
  }, {
    "fullUrl": "https://hapi.fhir.org/baseR4/Patient/597389",
    "resource": {
      "resourceType": "Patient",
      "id": "597389",
      "meta": {
        "versionId": "1",
        "lastUpdated": "2020-02-04T04:50:46.262+00:00",
        "source": "#fDRKpHEsIffvOF46"
      },
      "text": {
        "status": "generated",
        "div": "<div xmlns=\"http://www.w3.org/1999/xhtml\"><table class=\"hapiPropertyTable\"><tbody><tr><td>Address</td><td><span>123 </span><br/><span>Los Angeles </span><span>CA </span></td></tr></tbody></table></div>"
      },
      "gender": "female",
      "address": [ {
        "line": [ "123" ],
        "city": "Los Angeles",
        "state": "CA"
      } ]
    },
    "search": {
      "mode": "match"
    }
  }, {
    "fullUrl": "https://hapi.fhir.org/baseR4/Patient/597390",
    "resource": {
      "resourceType": "Patient",
      "id": "597390",
      "meta": {
        "versionId": "1",
        "lastUpdated": "2020-02-04T04:51:41.613+00:00",
        "source": "#DL8GA81v7qBPXmHx"
      },
      "text": {
        "status": "generated",
        "div": "<div xmlns=\"http://www.w3.org/1999/xhtml\"><div class=\"hapiHeaderText\">ying <b>YU </b></div><table class=\"hapiPropertyTable\"><tbody><tr><td>Address</td><td><span>123 </span><br/><span>Los Angeles </span><span>CA </span></td></tr></tbody></table></div>"
      },
      "name": [ {
        "family": "yu",
        "given": [ "ying" ]
      } ],
      "gender": "female",
      "address": [ {
        "line": [ "123" ],
        "city": "Los Angeles",
        "state": "CA"
      } ]
    },
    "search": {
      "mode": "match"
    }
  }, {
    "fullUrl": "https://hapi.fhir.org/baseR4/Patient/597391",
    "resource": {
      "resourceType": "Patient",
      "id": "597391",
      "meta": {
        "versionId": "1",
        "lastUpdated": "2020-02-04T04:51:53.845+00:00",
        "source": "#g2qVvQLfc4H8gcmI"
      },
      "text": {
        "status": "generated",
        "div": "<div xmlns=\"http://www.w3.org/1999/xhtml\"><div class=\"hapiHeaderText\">Neil <b>CHARLES </b></div><table class=\"hapiPropertyTable\"><tbody><tr><td>Identifier</td><td>ncharles3</td></tr><tr><td>Address</td><td><span>12345 Six Flags </span><br/><span>Las Vegas </span><span>Nevada </span><span>US </span></td></tr><tr><td>Date of birth</td><td><span>01 January 1995</span></td></tr></tbody></table></div>"
      },
      "identifier": [ {
        "value": "ncharles3"
      } ],
      "name": [ {
        "family": "Charles",
        "given": [ "Neil" ]
      } ],
      "telecom": [ {
        "system": "phone",
        "value": "1(987)634-6786",
        "use": "home"
      } ],
      "gender": "male",
      "birthDate": "1995-01-01",
      "address": [ {
        "line": [ "12345 Seven Flags" ],
        "city": "Brooklyn",
        "state": "New York",
        "country": "US"
      } ]
    },
    "search": {
      "mode": "match"
    }
  }, {
    "fullUrl": "https://hapi.fhir.org/baseR4/Patient/597388",
    "resource": {
      "resourceType": "Patient",
      "id": "597388",
      "meta": {
        "versionId": "2",
        "lastUpdated": "2020-02-04T04:52:48.182+00:00",
        "source": "#66F0kc9TDN4JxwZf"
      },
      "text": {
        "status": "generated",
        "div": "<div xmlns=\"http://www.w3.org/1999/xhtml\"><div class=\"hapiHeaderText\">Neil <b>CHARLES </b></div><table class=\"hapiPropertyTable\"><tbody><tr><td>Identifier</td><td>ncharles3</td></tr><tr><td>Address</td><td><span>12345 Six Flags </span><br/><span>Las Vegas </span><span>Nevada </span><span>US </span></td></tr><tr><td>Date of birth</td><td><span>01 January 1995</span></td></tr></tbody></table></div>"
      },
      "identifier": [ {
        "value": "ncharles3"
      } ],
      "name": [ {
        "family": "Charles",
        "given": [ "Neil" ]
      } ],
      "telecom": [ {
        "system": "phone",
        "value": "1(987)634-6786",
        "use": "home"
      } ],
      "gender": "male",
      "birthDate": "1995-01-01",
      "address": [ {
        "line": [ "12345 Ten Horses" ],
        "city": "Houston",
        "state": "Texas",
        "country": "US"
      } ]
    },
    "search": {
      "mode": "match"
    }
  }, {
    "fullUrl": "https://hapi.fhir.org/baseR4/Patient/597359",
    "resource": {
      "resourceType": "Patient",
      "id": "597359",
      "meta": {
        "versionId": "2",
        "lastUpdated": "2020-02-04T05:21:12.238+00:00",
        "source": "#kyfJcI6ivskvjWXd"
      },
      "text": {
        "status": "generated",
        "div": "<div xmlns=\"http://www.w3.org/1999/xhtml\"><div class=\"hapiHeaderText\">Ethan <b>WU </b></div><table class=\"hapiPropertyTable\"><tbody><tr><td>Identifier</td><td>ewu41</td></tr><tr><td>Address</td><td><span>444 Orange St </span><br/><span>San Diego </span><span>CA </span><span>usa </span></td></tr><tr><td>Date of birth</td><td><span>13 February 1974</span></td></tr></tbody></table></div>"
      },
      "identifier": [ {
        "system": "HAPI FHIR",
        "value": "ewu41"
      } ],
      "name": [ {
        "family": "Wu",
        "given": [ "Ethan" ]
      } ],
      "telecom": [ {
        "system": "phone",
        "value": "(03) 1234 1234",
        "use": "work"
      } ],
      "gender": "male",
      "birthDate": "1974-02-13",
      "address": [ {
        "line": [ "444 Orange St" ],
        "city": "San Diego",
        "state": "CA",
        "postalCode": "54321",
        "country": "usa"
      } ]
    },
    "search": {
      "mode": "match"
    }
  }, {
    "fullUrl": "https://hapi.fhir.org/baseR4/Patient/597392",
    "resource": {
      "resourceType": "Patient",
      "id": "597392",
      "meta": {
        "versionId": "1",
        "lastUpdated": "2020-02-04T05:21:27.524+00:00",
        "source": "#t9w4MTvoiiMVkQpe"
      },
      "text": {
        "status": "generated",
        "div": "<div xmlns=\"http://www.w3.org/1999/xhtml\"><div class=\"hapiHeaderText\">Neil <b>CHARLES </b></div><table class=\"hapiPropertyTable\"><tbody><tr><td>Date of birth</td><td><span>01 January 1995</span></td></tr></tbody></table></div>"
      },
      "name": [ {
        "family": "Charles",
        "given": [ "Neil" ]
      } ],
      "telecom": [ {
        "system": "phone",
        "value": "1(987)634-6786",
        "use": "home"
      } ],
      "gender": "male",
      "birthDate": "1995-01-01"
    },
    "search": {
      "mode": "match"
    }
  }, {
    "fullUrl": "https://hapi.fhir.org/baseR4/Patient/597393",
    "resource": {
      "resourceType": "Patient",
      "id": "597393",
      "meta": {
        "versionId": "1",
        "lastUpdated": "2020-02-04T05:21:41.725+00:00",
        "source": "#X2bGGQlOPrQ9Iylq"
      },
      "text": {
        "status": "generated",
        "div": "<div xmlns=\"http://www.w3.org/1999/xhtml\"><div class=\"hapiHeaderText\">Neil <b>CHARLES </b></div><table class=\"hapiPropertyTable\"><tbody><tr><td>Date of birth</td><td><span>01 January 1995</span></td></tr></tbody></table></div>"
      },
      "name": [ {
        "family": "Charles",
        "given": [ "Neil" ]
      } ],
      "telecom": [ {
        "system": "phone",
        "value": "1(987)634-6786",
        "use": "home"
      } ],
      "gender": "male",
      "birthDate": "1995-01-01"
    },
    "search": {
      "mode": "match"
    }
  }, {
    "fullUrl": "https://hapi.fhir.org/baseR4/Patient/597394",
    "resource": {
      "resourceType": "Patient",
      "id": "597394",
      "meta": {
        "versionId": "1",
        "lastUpdated": "2020-02-04T05:29:59.496+00:00",
        "source": "#bKcLTeVrHbiLfCH6"
      },
      "text": {
        "status": "generated",
        "div": "<div xmlns=\"http://www.w3.org/1999/xhtml\"><div class=\"hapiHeaderText\">Bob <b>ALEXANDER </b></div><table class=\"hapiPropertyTable\"><tbody><tr><td>Identifier</td><td>1340a571-d031-47d8-91da-bea1dc6f1075</td></tr></tbody></table></div>"
      },
      "identifier": [ {
        "type": {
          "coding": [ {
            "system": "http://hl7.org/fhir/v2/0203",
            "code": "MR"
          } ]
        },
        "value": "1340a571-d031-47d8-91da-bea1dc6f1075"
      } ],
      "name": [ {
        "family": "Alexander",
        "given": [ "Bob" ]
      } ]
    },
    "search": {
      "mode": "match"
    }
  }, {
    "fullUrl": "https://hapi.fhir.org/baseR4/Patient/597395",
    "resource": {
      "resourceType": "Patient",
      "id": "597395",
      "meta": {
        "versionId": "1",
        "lastUpdated": "2020-02-04T05:29:59.849+00:00",
        "source": "#VKiJ2JTwqkjRTGNr"
      },
      "text": {
        "status": "generated",
        "div": "<div xmlns=\"http://www.w3.org/1999/xhtml\"><div class=\"hapiHeaderText\">Caleb <b>CUSHING </b></div><table class=\"hapiPropertyTable\"><tbody><tr><td>Identifier</td><td>42f87d59-27b3-4a6e-9aef-4294a2d75a53</td></tr></tbody></table></div>"
      },
      "identifier": [ {
        "type": {
          "coding": [ {
            "system": "http://hl7.org/fhir/v2/0203",
            "code": "MR"
          } ]
        },
        "value": "42f87d59-27b3-4a6e-9aef-4294a2d75a53"
      } ],
      "name": [ {
        "family": "Cushing",
        "given": [ "Caleb" ]
      } ]
    },
    "search": {
      "mode": "match"
    }
  }, {
    "fullUrl": "https://hapi.fhir.org/baseR4/Patient/597406",
    "resource": {
      "resourceType": "Patient",
      "id": "597406",
      "meta": {
        "versionId": "1",
        "lastUpdated": "2020-02-04T05:30:01.486+00:00",
        "source": "#hAr9HizMIJwtLP7w"
      },
      "text": {
        "status": "generated",
        "div": "<div xmlns=\"http://www.w3.org/1999/xhtml\"><div class=\"hapiHeaderText\">Bob <b>ALEXANDER </b></div><table class=\"hapiPropertyTable\"><tbody><tr><td>Identifier</td><td>7b5b99de-6839-47e8-897a-b4299d966ff4</td></tr></tbody></table></div>"
      },
      "identifier": [ {
        "type": {
          "coding": [ {
            "system": "http://hl7.org/fhir/v2/0203",
            "code": "MR"
          } ]
        },
        "value": "7b5b99de-6839-47e8-897a-b4299d966ff4"
      } ],
      "name": [ {
        "family": "Alexander",
        "given": [ "Bob" ]
      } ]
    },
    "search": {
      "mode": "match"
    }
  }, {
    "fullUrl": "https://hapi.fhir.org/baseR4/Patient/597407",
    "resource": {
      "resourceType": "Patient",
      "id": "597407",
      "meta": {
        "versionId": "1",
        "lastUpdated": "2020-02-04T05:30:01.569+00:00",
        "source": "#XcHrPmJgf4ejSgdh"
      },
      "text": {
        "status": "generated",
        "div": "<div xmlns=\"http://www.w3.org/1999/xhtml\"><div class=\"hapiHeaderText\">Caleb <b>CUSHING </b></div><table class=\"hapiPropertyTable\"><tbody><tr><td>Identifier</td><td>aa8a4ed0-61f4-4134-8ef3-c7719622ccb2</td></tr></tbody></table></div>"
      },
      "identifier": [ {
        "type": {
          "coding": [ {
            "system": "http://hl7.org/fhir/v2/0203",
            "code": "MR"
          } ]
        },
        "value": "aa8a4ed0-61f4-4134-8ef3-c7719622ccb2"
      } ],
      "name": [ {
        "family": "Cushing",
        "given": [ "Caleb" ]
      } ]
    },
    "search": {
      "mode": "match"
    }
  }, {
    "fullUrl": "https://hapi.fhir.org/baseR4/Patient/597414",
    "resource": {
      "resourceType": "Patient",
      "id": "597414",
      "meta": {
        "versionId": "1",
        "lastUpdated": "2020-02-04T05:30:02.216+00:00",
        "source": "#A3ibxcaP868ii5wj"
      },
      "text": {
        "status": "generated",
        "div": "<div xmlns=\"http://www.w3.org/1999/xhtml\"><div class=\"hapiHeaderText\">Bob <b>ALEXANDER </b></div><table class=\"hapiPropertyTable\"><tbody><tr><td>Identifier</td><td>c0538cfe-7f06-4f45-8947-f72e2bd4aaa9</td></tr></tbody></table></div>"
      },
      "identifier": [ {
        "type": {
          "coding": [ {
            "system": "http://hl7.org/fhir/v2/0203",
            "code": "MR"
          } ]
        },
        "value": "c0538cfe-7f06-4f45-8947-f72e2bd4aaa9"
      } ],
      "name": [ {
        "family": "Alexander",
        "given": [ "Bob" ]
      } ]
    },
    "search": {
      "mode": "match"
    }
  }, {
    "fullUrl": "https://hapi.fhir.org/baseR4/Patient/597415",
    "resource": {
      "resourceType": "Patient",
      "id": "597415",
      "meta": {
        "versionId": "1",
        "lastUpdated": "2020-02-04T05:30:02.328+00:00",
        "source": "#WV3HnS4Xk1BhiyVZ"
      },
      "text": {
        "status": "generated",
        "div": "<div xmlns=\"http://www.w3.org/1999/xhtml\"><div class=\"hapiHeaderText\">Caleb <b>CUSHING </b></div><table class=\"hapiPropertyTable\"><tbody><tr><td>Identifier</td><td>3cab9a7c-7970-4575-a17c-39263c32a2ea</td></tr></tbody></table></div>"
      },
      "identifier": [ {
        "type": {
          "coding": [ {
            "system": "http://hl7.org/fhir/v2/0203",
            "code": "MR"
          } ]
        },
        "value": "3cab9a7c-7970-4575-a17c-39263c32a2ea"
      } ],
      "name": [ {
        "family": "Cushing",
        "given": [ "Caleb" ]
      } ]
    },
    "search": {
      "mode": "match"
    }
  }, {
    "fullUrl": "https://hapi.fhir.org/baseR4/Patient/597422",
    "resource": {
      "resourceType": "Patient",
      "id": "597422",
      "meta": {
        "versionId": "1",
        "lastUpdated": "2020-02-04T05:30:05.499+00:00",
        "source": "#k7BKxFNMdVongjF4"
      },
      "text": {
        "status": "generated",
        "div": "<div xmlns=\"http://www.w3.org/1999/xhtml\"><div class=\"hapiHeaderText\">Bob <b>ALEXANDER </b></div><table class=\"hapiPropertyTable\"><tbody><tr><td>Identifier</td><td>0620d3b4-97d2-4d61-adca-e9e19a2344b5</td></tr></tbody></table></div>"
      },
      "identifier": [ {
        "type": {
          "coding": [ {
            "system": "http://hl7.org/fhir/v2/0203",
            "code": "MR"
          } ]
        },
        "value": "0620d3b4-97d2-4d61-adca-e9e19a2344b5"
      } ],
      "name": [ {
        "family": "Alexander",
        "given": [ "Bob" ]
      } ]
    },
    "search": {
      "mode": "match"
    }
  }, {
    "fullUrl": "https://hapi.fhir.org/baseR4/Patient/597423",
    "resource": {
      "resourceType": "Patient",
      "id": "597423",
      "meta": {
        "versionId": "1",
        "lastUpdated": "2020-02-04T05:30:05.585+00:00",
        "source": "#jAfbTOGQblDXIPuR"
      },
      "text": {
        "status": "generated",
        "div": "<div xmlns=\"http://www.w3.org/1999/xhtml\"><div class=\"hapiHeaderText\">Caleb <b>CUSHING </b></div><table class=\"hapiPropertyTable\"><tbody><tr><td>Identifier</td><td>21066ac8-f9ef-4d04-8f9d-38ddc5d7fa3a</td></tr></tbody></table></div>"
      },
      "identifier": [ {
        "type": {
          "coding": [ {
            "system": "http://hl7.org/fhir/v2/0203",
            "code": "MR"
          } ]
        },
        "value": "21066ac8-f9ef-4d04-8f9d-38ddc5d7fa3a"
      } ],
      "name": [ {
        "family": "Cushing",
        "given": [ "Caleb" ]
      } ]
    },
    "search": {
      "mode": "match"
    }
  }, {
    "fullUrl": "https://hapi.fhir.org/baseR4/Patient/597430",
    "resource": {
      "resourceType": "Patient",
      "id": "597430",
      "meta": {
        "versionId": "1",
        "lastUpdated": "2020-02-04T05:30:06.176+00:00",
        "source": "#grzB2ysNxzvOr9cU"
      },
      "text": {
        "status": "generated",
        "div": "<div xmlns=\"http://www.w3.org/1999/xhtml\"><div class=\"hapiHeaderText\">Bob <b>ALEXANDER </b></div><table class=\"hapiPropertyTable\"><tbody><tr><td>Identifier</td><td>ecc4fd54-a656-44b5-95df-b6cbc719f827</td></tr></tbody></table></div>"
      },
      "identifier": [ {
        "type": {
          "coding": [ {
            "system": "http://hl7.org/fhir/v2/0203",
            "code": "MR"
          } ]
        },
        "value": "ecc4fd54-a656-44b5-95df-b6cbc719f827"
      } ],
      "name": [ {
        "family": "Alexander",
        "given": [ "Bob" ]
      } ]
    },
    "search": {
      "mode": "match"
    }
  }, {
    "fullUrl": "https://hapi.fhir.org/baseR4/Patient/597431",
    "resource": {
      "resourceType": "Patient",
      "id": "597431",
      "meta": {
        "versionId": "1",
        "lastUpdated": "2020-02-04T05:30:06.277+00:00",
        "source": "#cPUM7BcWDekJOf0i"
      },
      "text": {
        "status": "generated",
        "div": "<div xmlns=\"http://www.w3.org/1999/xhtml\"><div class=\"hapiHeaderText\">Caleb <b>CUSHING </b></div><table class=\"hapiPropertyTable\"><tbody><tr><td>Identifier</td><td>d024de9e-d156-4b92-ad05-18cb567e7aaf</td></tr></tbody></table></div>"
      },
      "identifier": [ {
        "type": {
          "coding": [ {
            "system": "http://hl7.org/fhir/v2/0203",
            "code": "MR"
          } ]
        },
        "value": "d024de9e-d156-4b92-ad05-18cb567e7aaf"
      } ],
      "name": [ {
        "family": "Cushing",
        "given": [ "Caleb" ]
      } ]
    },
    "search": {
      "mode": "match"
    }
  }, {
    "fullUrl": "https://hapi.fhir.org/baseR4/Patient/597438",
    "resource": {
      "resourceType": "Patient",
      "id": "597438",
      "meta": {
        "versionId": "1",
        "lastUpdated": "2020-02-04T05:30:06.869+00:00",
        "source": "#y2MITaXvBLGmAkqe"
      },
      "text": {
        "status": "generated",
        "div": "<div xmlns=\"http://www.w3.org/1999/xhtml\"><div class=\"hapiHeaderText\">Bob <b>ALEXANDER </b></div><table class=\"hapiPropertyTable\"><tbody><tr><td>Identifier</td><td>45e98499-55c7-4035-b6b4-70bf5c298eeb</td></tr></tbody></table></div>"
      },
      "identifier": [ {
        "type": {
          "coding": [ {
            "system": "http://hl7.org/fhir/v2/0203",
            "code": "MR"
          } ]
        },
        "value": "45e98499-55c7-4035-b6b4-70bf5c298eeb"
      } ],
      "name": [ {
        "family": "Alexander",
        "given": [ "Bob" ]
      } ]
    },
    "search": {
      "mode": "match"
    }
  }, {
    "fullUrl": "https://hapi.fhir.org/baseR4/Patient/597439",
    "resource": {
      "resourceType": "Patient",
      "id": "597439",
      "meta": {
        "versionId": "1",
        "lastUpdated": "2020-02-04T05:30:06.966+00:00",
        "source": "#mXuVCyqKkRjP08eO"
      },
      "text": {
        "status": "generated",
        "div": "<div xmlns=\"http://www.w3.org/1999/xhtml\"><div class=\"hapiHeaderText\">Caleb <b>CUSHING </b></div><table class=\"hapiPropertyTable\"><tbody><tr><td>Identifier</td><td>96cc98ad-0f49-48f9-80c3-56183316cc04</td></tr></tbody></table></div>"
      },
      "identifier": [ {
        "type": {
          "coding": [ {
            "system": "http://hl7.org/fhir/v2/0203",
            "code": "MR"
          } ]
        },
        "value": "96cc98ad-0f49-48f9-80c3-56183316cc04"
      } ],
      "name": [ {
        "family": "Cushing",
        "given": [ "Caleb" ]
      } ]
    },
    "search": {
      "mode": "match"
    }
  }, {
    "fullUrl": "https://hapi.fhir.org/baseR4/Patient/597446",
    "resource": {
      "resourceType": "Patient",
      "id": "597446",
      "meta": {
        "versionId": "1",
        "lastUpdated": "2020-02-04T05:30:07.520+00:00",
        "source": "#ghS3RMeyO3LcCogC"
      },
      "text": {
        "status": "generated",
        "div": "<div xmlns=\"http://www.w3.org/1999/xhtml\"><div class=\"hapiHeaderText\">Bob <b>ALEXANDER </b></div><table class=\"hapiPropertyTable\"><tbody><tr><td>Identifier</td><td>6904bc5c-dbb3-4c9f-9d6e-18fc9631d8a7</td></tr></tbody></table></div>"
      },
      "identifier": [ {
        "type": {
          "coding": [ {
            "system": "http://hl7.org/fhir/v2/0203",
            "code": "MR"
          } ]
        },
        "value": "6904bc5c-dbb3-4c9f-9d6e-18fc9631d8a7"
      } ],
      "name": [ {
        "family": "Alexander",
        "given": [ "Bob" ]
      } ]
    },
    "search": {
      "mode": "match"
    }
  }, {
    "fullUrl": "https://hapi.fhir.org/baseR4/Patient/597447",
    "resource": {
      "resourceType": "Patient",
      "id": "597447",
      "meta": {
        "versionId": "1",
        "lastUpdated": "2020-02-04T05:30:07.636+00:00",
        "source": "#IDEKldJClGLwMTJf"
      },
      "text": {
        "status": "generated",
        "div": "<div xmlns=\"http://www.w3.org/1999/xhtml\"><div class=\"hapiHeaderText\">Caleb <b>CUSHING </b></div><table class=\"hapiPropertyTable\"><tbody><tr><td>Identifier</td><td>84a2de6f-98f4-4b3a-b7a5-c5c52286757d</td></tr></tbody></table></div>"
      },
      "identifier": [ {
        "type": {
          "coding": [ {
            "system": "http://hl7.org/fhir/v2/0203",
            "code": "MR"
          } ]
        },
        "value": "84a2de6f-98f4-4b3a-b7a5-c5c52286757d"
      } ],
      "name": [ {
        "family": "Cushing",
        "given": [ "Caleb" ]
      } ]
    },
    "search": {
      "mode": "match"
    }
  }, {
    "fullUrl": "https://hapi.fhir.org/baseR4/Patient/597365",
    "resource": {
      "resourceType": "Patient",
      "id": "597365",
      "meta": {
        "versionId": "3",
        "lastUpdated": "2020-02-04T05:31:54.809+00:00",
        "source": "#yiKeBcyXiraKjRQl"
      },
      "text": {
        "status": "generated",
        "div": "<div xmlns=\"http://www.w3.org/1999/xhtml\"><div class=\"hapiHeaderText\">Tighe <b>BODALLA </b> Esquire </div><table class=\"hapiPropertyTable\"><tbody><tr><td>Identifier</td><td>ljones91</td></tr><tr><td>Address</td><td><span>365 North 200 West </span><br/><span>St. George </span><span>Utah </span><span>USA </span></td></tr><tr><td>Date of birth</td><td><span>14 March 1954</span></td></tr></tbody></table></div>"
      },
      "identifier": [ {
        "use": "temp",
        "value": "ljones91"
      } ],
      "active": true,
      "name": [ {
        "family": "Bodalla",
        "given": [ "Tighe" ],
        "suffix": [ "Esquire" ]
      } ],
      "telecom": [ {
        "system": "fax",
        "value": "555-555-9876",
        "use": "work",
        "rank": 1
      } ],
      "gender": "male",
      "birthDate": "1954-03-14",
      "address": [ {
        "type": "both",
        "line": [ "365 North 200 West" ],
        "city": "St. George",
        "state": "Utah",
        "postalCode": "84770",
        "country": "USA"
      } ]
    },
    "search": {
      "mode": "match"
    }
  }, {
    "fullUrl": "https://hapi.fhir.org/baseR4/Patient/597383",
    "resource": {
      "resourceType": "Patient",
      "id": "597383",
      "meta": {
        "versionId": "2",
        "lastUpdated": "2020-02-04T05:37:29.348+00:00",
        "source": "#E8UtZcLAGX1EyitK"
      },
      "text": {
        "status": "generated",
        "div": "<div xmlns=\"http://www.w3.org/1999/xhtml\"><div class=\"hapiHeaderText\">Tony <b>STARK </b></div><table class=\"hapiPropertyTable\"><tbody><tr><td>Identifier</td><td>bgray38</td></tr><tr><td>Address</td><td><span>200 Park Avenue </span><br/><span>Manhattan </span><span>NY </span><span>USA </span></td></tr><tr><td>Date of birth</td><td><span>29 May 1970</span></td></tr></tbody></table></div>"
      },
      "identifier": [ {
        "use": "official",
        "value": "bgray38"
      } ],
      "active": true,
      "name": [ {
        "family": "Stark",
        "given": [ "Tony" ]
      } ],
      "telecom": [ {
        "system": "phone",
        "value": "212-648-3333",
        "use": "home"
      } ],
      "gender": "male",
      "birthDate": "1970-05-29",
      "deceasedBoolean": false,
      "address": [ {
        "use": "home",
        "type": "both",
        "line": [ "200 Park Avenue" ],
        "city": "Manhattan",
        "district": "New York",
        "state": "NY",
        "postalCode": "10166",
        "country": "USA",
        "period": {
          "start": "2008-05-02"
        }
      } ]
    },
    "search": {
      "mode": "match"
    }
  }, {
    "fullUrl": "https://hapi.fhir.org/baseR4/Patient/597458",
    "resource": {
      "resourceType": "Patient",
      "id": "597458",
      "meta": {
        "versionId": "1",
        "lastUpdated": "2020-02-04T06:30:52.702+00:00",
        "source": "#tWHRchN1xu8fjH3B"
      },
      "text": {
        "status": "generated",
        "div": "<div xmlns=\"http://www.w3.org/1999/xhtml\"><div class=\"hapiHeaderText\">Mark <b>BIGGERS </b></div><table class=\"hapiPropertyTable\"><tbody><tr><td>Identifier</td><td>xliu724</td></tr><tr><td>Address</td><td><span>3100 Haven Street </span><br/><span>Redwood City </span><span>California </span></td></tr><tr><td>Date of birth</td><td><span>27 November 1998</span></td></tr></tbody></table></div>"
      },
      "identifier": [ {
        "type": {
          "coding": [ {
            "system": "http://hl7.org/fhir/v2/0203",
            "code": "MR"
          } ]
        },
        "value": "xliu724"
      } ],
      "name": [ {
        "family": "Biggers",
        "given": [ "Mark" ]
      } ],
      "telecom": [ {
        "system": "phone",
        "value": "5108891234",
        "use": "mobile"
      }, {
        "system": "email",
        "value": "mark-biggers@gamil.com",
        "use": "work"
      } ],
      "gender": "male",
      "birthDate": "1998-11-27",
      "address": [ {
        "line": [ "3100 Haven Street" ],
        "city": "Redwood City",
        "state": "California",
        "postalCode": "94540"
      } ]
    },
    "search": {
      "mode": "match"
    }
  }, {
    "fullUrl": "https://hapi.fhir.org/baseR4/Patient/597460",
    "resource": {
      "resourceType": "Patient",
      "id": "597460",
      "meta": {
        "versionId": "1",
        "lastUpdated": "2020-02-04T06:31:25.134+00:00",
        "source": "#7CfhRyHvVWD22De0"
      },
      "text": {
        "status": "generated",
        "div": "<div xmlns=\"http://www.w3.org/1999/xhtml\"><div class=\"hapiHeaderText\">ying <b>YU </b></div><table class=\"hapiPropertyTable\"><tbody><tr><td>Address</td><td><span>123 </span><br/><span>Los Angeles </span><span>CA </span></td></tr></tbody></table></div>"
      },
      "name": [ {
        "family": "yu",
        "given": [ "ying" ]
      } ],
      "gender": "female",
      "address": [ {
        "line": [ "123" ],
        "city": "Los Angeles",
        "state": "CA"
      } ]
    },
    "search": {
      "mode": "match"
    }
  }, {
    "fullUrl": "https://hapi.fhir.org/baseR4/Patient/597459",
    "resource": {
      "resourceType": "Patient",
      "id": "597459",
      "meta": {
        "versionId": "2",
        "lastUpdated": "2020-02-04T06:34:00.669+00:00",
        "source": "#3nyE4QxiuGnDbrNG"
      },
      "text": {
        "status": "generated",
        "div": "<div xmlns=\"http://www.w3.org/1999/xhtml\"><div class=\"hapiHeaderText\">Dio <b>BRANDO </b></div><table class=\"hapiPropertyTable\"><tbody><tr><td>Identifier</td><td>jpark965</td></tr><tr><td>Address</td><td><span>11 PACIFIC AVENUE </span><br/><span>APT 200 </span><br/><span>SEATTLE </span><span>WA </span><span>USA </span></td></tr><tr><td>Date of birth</td><td><span>11 March 1900</span></td></tr></tbody></table></div>"
      },
      "identifier": [ {
        "use": "usual",
        "value": "jpark965"
      } ],
      "name": [ {
        "family": "Brando",
        "given": [ "Dio" ]
      } ],
      "telecom": [ {
        "system": "phone",
        "value": "1(001)123-1111",
        "use": "home"
      } ],
      "gender": "male",
      "birthDate": "1900-03-11",
      "address": [ {
        "use": "home",
        "text": "11 pacific ave",
        "line": [ "11 PACIFIC AVENUE", "APT 200" ],
        "city": "SEATTLE",
        "state": "WA",
        "country": "USA"
      } ]
    },
    "search": {
      "mode": "match"
    }
  }, {
    "fullUrl": "https://hapi.fhir.org/baseR4/Patient/597461",
    "resource": {
      "resourceType": "Patient",
      "id": "597461",
      "meta": {
        "versionId": "1",
        "lastUpdated": "2020-02-04T06:39:23.242+00:00",
        "source": "#Q1mUa269ISTQGEPg"
      },
      "text": {
        "status": "generated",
        "div": "<div xmlns=\"http://www.w3.org/1999/xhtml\"><div class=\"hapiHeaderText\">Greg <b>JUNIPER </b></div><table class=\"hapiPropertyTable\"><tbody/></table></div>"
      },
      "name": [ {
        "family": "Juniper",
        "given": [ "Greg" ]
      } ]
    },
    "search": {
      "mode": "match"
    }
  }, {
    "fullUrl": "https://hapi.fhir.org/baseR4/Patient/597462",
    "resource": {
      "resourceType": "Patient",
      "id": "597462",
      "meta": {
        "versionId": "1",
        "lastUpdated": "2020-02-04T06:41:31.289+00:00",
        "source": "#9ZhliAcIr1M12HeT"
      },
      "text": {
        "status": "generated",
        "div": "<div xmlns=\"http://www.w3.org/1999/xhtml\"><div class=\"hapiHeaderText\">yiiiing <b>YUUUU </b></div><table class=\"hapiPropertyTable\"><tbody><tr><td>Identifier</td><td>yyu413</td></tr><tr><td>Address</td><td><span>123 </span><br/><span>Los Angeles </span><span>CA </span></td></tr><tr><td>Date of birth</td><td><span>15 February 1995</span></td></tr></tbody></table></div>"
      },
      "identifier": [ {
        "value": "yyu413"
      } ],
      "name": [ {
        "family": "yuuuu",
        "given": [ "yiiiing" ]
      } ],
      "gender": "female",
      "birthDate": "1995-02-15",
      "address": [ {
        "line": [ "123" ],
        "city": "Los Angeles",
        "state": "CA"
      } ]
    },
    "search": {
      "mode": "match"
    }
  }, {
    "fullUrl": "https://hapi.fhir.org/baseR4/Observation/10307193",
    "resource": {
      "resourceType": "Observation",
      "id": "10307193",
      "meta": {
        "versionId": "1",
        "lastUpdated": "2023-04-19T09:59:45.955+00:00",
        "source": "#c0PfstIzlJNLC7Ok"
      },
      "code": {
        "coding": [ {
          "system": "http://foo",
          "code": "12345"
        } ]
      },
      "subject": {
        "reference": "Patient/597380"
      },
      "effectiveDateTime": "2023-04-19T09:34:50+01:00",
      "valueQuantity": {
        "value": 123,
        "unit": "kg",
        "system": "http://bar",
        "code": "kg"
      }
    },
    "search": {
      "mode": "include"
    }
  }, {
    "fullUrl": "https://hapi.fhir.org/baseR4/Observation/10322044",
    "resource": {
      "resourceType": "Observation",
      "id": "10322044",
      "meta": {
        "versionId": "1",
        "lastUpdated": "2023-04-19T10:08:11.117+00:00",
        "source": "#95F1MQiLeqOLLUhk"
      },
      "code": {
        "coding": [ {
          "system": "http://foo",
          "code": "12345"
        } ]
      },
      "subject": {
        "reference": "Patient/597395"
      },
      "effectiveDateTime": "2023-04-19T09:34:50+01:00",
      "valueQuantity": {
        "value": 123,
        "unit": "kg",
        "system": "http://bar",
        "code": "kg"
      }
    },
    "search": {
      "mode": "include"
    }
  }, {
    "fullUrl": "https://hapi.fhir.org/baseR4/Observation/10307190",
    "resource": {
      "resourceType": "Observation",
      "id": "10307190",
      "meta": {
        "versionId": "1",
        "lastUpdated": "2023-04-19T09:59:45.847+00:00",
        "source": "#URNERSdMbaDzKkGp"
      },
      "code": {
        "coding": [ {
          "system": "http://foo",
          "code": "12345"
        } ]
      },
      "subject": {
        "reference": "Patient/597384"
      },
      "effectiveDateTime": "2023-04-19T09:34:50+01:00",
      "valueQuantity": {
        "value": 123,
        "unit": "kg",
        "system": "http://bar",
        "code": "kg"
      }
    },
    "search": {
      "mode": "include"
    }
  }, {
    "fullUrl": "https://hapi.fhir.org/baseR4/Observation/10307189",
    "resource": {
      "resourceType": "Observation",
      "id": "10307189",
      "meta": {
        "versionId": "1",
        "lastUpdated": "2023-04-19T09:59:45.823+00:00",
        "source": "#3CwPHUfVqMCFm0xq"
      },
      "code": {
        "coding": [ {
          "system": "http://foo",
          "code": "12345"
        } ]
      },
      "subject": {
        "reference": "Patient/597385"
      },
      "effectiveDateTime": "2023-04-19T09:34:50+01:00",
      "valueQuantity": {
        "value": 123,
        "unit": "kg",
        "system": "http://bar",
        "code": "kg"
      }
    },
    "search": {
      "mode": "include"
    }
  }, {
    "fullUrl": "https://hapi.fhir.org/baseR4/Observation/10307192",
    "resource": {
      "resourceType": "Observation",
      "id": "10307192",
      "meta": {
        "versionId": "1",
        "lastUpdated": "2023-04-19T09:59:45.875+00:00",
        "source": "#lZxdLALb5ie45QwL"
      },
      "code": {
        "coding": [ {
          "system": "http://foo",
          "code": "12345"
        } ]
      },
      "subject": {
        "reference": "Patient/597381"
      },
      "effectiveDateTime": "2023-04-19T09:34:50+01:00",
      "valueQuantity": {
        "value": 123,
        "unit": "kg",
        "system": "http://bar",
        "code": "kg"
      }
    },
    "search": {
      "mode": "include"
    }
  }, {
    "fullUrl": "https://hapi.fhir.org/baseR4/Observation/10322040",
    "resource": {
      "resourceType": "Observation",
      "id": "10322040",
      "meta": {
        "versionId": "1",
        "lastUpdated": "2023-04-19T10:08:11.037+00:00",
        "source": "#S3M0kYs9Yct2mYLY"
      },
      "code": {
        "coding": [ {
          "system": "http://foo",
          "code": "12345"
        } ]
      },
      "subject": {
        "reference": "Patient/597390"
      },
      "effectiveDateTime": "2023-04-19T09:34:50+01:00",
      "valueQuantity": {
        "value": 123,
        "unit": "kg",
        "system": "http://bar",
        "code": "kg"
      }
    },
    "search": {
      "mode": "include"
    }
  }, {
    "fullUrl": "https://hapi.fhir.org/baseR4/Observation/10307186",
    "resource": {
      "resourceType": "Observation",
      "id": "10307186",
      "meta": {
        "versionId": "1",
        "lastUpdated": "2023-04-19T09:59:45.697+00:00",
        "source": "#P0Ntqg6KruY1Zbas"
      },
      "code": {
        "coding": [ {
          "system": "http://foo",
          "code": "12345"
        } ]
      },
      "subject": {
        "reference": "Patient/597388"
      },
      "effectiveDateTime": "2023-04-19T09:34:50+01:00",
      "valueQuantity": {
        "value": 123,
        "unit": "kg",
        "system": "http://bar",
        "code": "kg"
      }
    },
    "search": {
      "mode": "include"
    }
  }, {
    "fullUrl": "https://hapi.fhir.org/baseR4/Observation/10307185",
    "resource": {
      "resourceType": "Observation",
      "id": "10307185",
      "meta": {
        "versionId": "1",
        "lastUpdated": "2023-04-19T09:59:45.660+00:00",
        "source": "#VRrXl3POuwLvsLRL"
      },
      "code": {
        "coding": [ {
          "system": "http://foo",
          "code": "12345"
        } ]
      },
      "subject": {
        "reference": "Patient/597389"
      },
      "effectiveDateTime": "2023-04-19T09:34:50+01:00",
      "valueQuantity": {
        "value": 123,
        "unit": "kg",
        "system": "http://bar",
        "code": "kg"
      }
    },
    "search": {
      "mode": "include"
    }
  }, {
    "fullUrl": "https://hapi.fhir.org/baseR4/Observation/10307188",
    "resource": {
      "resourceType": "Observation",
      "id": "10307188",
      "meta": {
        "versionId": "1",
        "lastUpdated": "2023-04-19T09:59:45.799+00:00",
        "source": "#t9YHxMBaw0PJHBwo"
      },
      "code": {
        "coding": [ {
          "system": "http://foo",
          "code": "12345"
        } ]
      },
      "subject": {
        "reference": "Patient/597382"
      },
      "effectiveDateTime": "2023-04-19T09:34:50+01:00",
      "valueQuantity": {
        "value": 123,
        "unit": "kg",
        "system": "http://bar",
        "code": "kg"
      }
    },
    "search": {
      "mode": "include"
    }
  }, {
    "fullUrl": "https://hapi.fhir.org/baseR4/Observation/10307187",
    "resource": {
      "resourceType": "Observation",
      "id": "10307187",
      "meta": {
        "versionId": "1",
        "lastUpdated": "2023-04-19T09:59:45.719+00:00",
        "source": "#MeaFlfoUPf7gNzfd"
      },
      "code": {
        "coding": [ {
          "system": "http://foo",
          "code": "12345"
        } ]
      },
      "subject": {
        "reference": "Patient/597383"
      },
      "effectiveDateTime": "2023-04-19T09:34:50+01:00",
      "valueQuantity": {
        "value": 123,
        "unit": "kg",
        "system": "http://bar",
        "code": "kg"
      }
    },
    "search": {
      "mode": "include"
    }
  }, {
    "fullUrl": "https://hapi.fhir.org/baseR4/Observation/10322035",
    "resource": {
      "resourceType": "Observation",
      "id": "10322035",
      "meta": {
        "versionId": "1",
        "lastUpdated": "2023-04-19T10:08:10.826+00:00",
        "source": "#YxTCAd9Iimmu7XQD"
      },
      "code": {
        "coding": [ {
          "system": "http://foo",
          "code": "12345"
        } ]
      },
      "subject": {
        "reference": "Patient/597394"
      },
      "effectiveDateTime": "2023-04-19T09:34:50+01:00",
      "valueQuantity": {
        "value": 123,
        "unit": "kg",
        "system": "http://bar",
        "code": "kg"
      }
    },
    "search": {
      "mode": "include"
    }
  }, {
    "fullUrl": "https://hapi.fhir.org/baseR4/Observation/10307184",
    "resource": {
      "resourceType": "Observation",
      "id": "10307184",
      "meta": {
        "versionId": "1",
        "lastUpdated": "2023-04-19T09:59:45.654+00:00",
        "source": "#NuMDLTyzcArZZ7ba"
      },
      "code": {
        "coding": [ {
          "system": "http://foo",
          "code": "12345"
        } ]
      },
      "subject": {
        "reference": "Patient/597386"
      },
      "effectiveDateTime": "2023-04-19T09:34:50+01:00",
      "valueQuantity": {
        "value": 123,
        "unit": "kg",
        "system": "http://bar",
        "code": "kg"
      }
    },
    "search": {
      "mode": "include"
    }
  }, {
    "fullUrl": "https://hapi.fhir.org/baseR4/Observation/10307183",
    "resource": {
      "resourceType": "Observation",
      "id": "10307183",
      "meta": {
        "versionId": "1",
        "lastUpdated": "2023-04-19T09:59:45.637+00:00",
        "source": "#XrQrF35GsZBlkz44"
      },
      "code": {
        "coding": [ {
          "system": "http://foo",
          "code": "12345"
        } ]
      },
      "subject": {
        "reference": "Patient/597387"
      },
      "effectiveDateTime": "2023-04-19T09:34:50+01:00",
      "valueQuantity": {
        "value": 123,
        "unit": "kg",
        "system": "http://bar",
        "code": "kg"
      }
    },
    "search": {
      "mode": "include"
    }
  }, {
    "fullUrl": "https://hapi.fhir.org/baseR4/Observation/10307173",
    "resource": {
      "resourceType": "Observation",
      "id": "10307173",
      "meta": {
        "versionId": "1",
        "lastUpdated": "2023-04-19T09:59:45.205+00:00",
        "source": "#tlwt3i72wbUuClN1"
      },
      "code": {
        "coding": [ {
          "system": "http://foo",
          "code": "12345"
        } ]
      },
      "subject": {
        "reference": "Patient/597373"
      },
      "effectiveDateTime": "2023-04-19T09:34:50+01:00",
      "valueQuantity": {
        "value": 123,
        "unit": "kg",
        "system": "http://bar",
        "code": "kg"
      }
    },
    "search": {
      "mode": "include"
    }
  }, {
    "fullUrl": "https://hapi.fhir.org/baseR4/Observation/10307170",
    "resource": {
      "resourceType": "Observation",
      "id": "10307170",
      "meta": {
        "versionId": "1",
        "lastUpdated": "2023-04-19T09:59:45.033+00:00",
        "source": "#lvpmWCu7PWivIpmn"
      },
      "code": {
        "coding": [ {
          "system": "http://foo",
          "code": "12345"
        } ]
      },
      "subject": {
        "reference": "Patient/597374"
      },
      "effectiveDateTime": "2023-04-19T09:34:50+01:00",
      "valueQuantity": {
        "value": 123,
        "unit": "kg",
        "system": "http://bar",
        "code": "kg"
      }
    },
    "search": {
      "mode": "include"
    }
  }, {
    "fullUrl": "https://hapi.fhir.org/baseR4/Observation/10307169",
    "resource": {
      "resourceType": "Observation",
      "id": "10307169",
      "meta": {
        "versionId": "1",
        "lastUpdated": "2023-04-19T09:59:44.936+00:00",
        "source": "#0KNB9nCCrphQztT5"
      },
      "code": {
        "coding": [ {
          "system": "http://foo",
          "code": "12345"
        } ]
      },
      "subject": {
        "reference": "Patient/597371"
      },
      "effectiveDateTime": "2023-04-19T09:34:50+01:00",
      "valueQuantity": {
        "value": 123,
        "unit": "kg",
        "system": "http://bar",
        "code": "kg"
      }
    },
    "search": {
      "mode": "include"
    }
  }, {
    "fullUrl": "https://hapi.fhir.org/baseR4/Observation/10307172",
    "resource": {
      "resourceType": "Observation",
      "id": "10307172",
      "meta": {
        "versionId": "1",
        "lastUpdated": "2023-04-19T09:59:45.204+00:00",
        "source": "#OAZMxiG6FE6uXP0s"
      },
      "code": {
        "coding": [ {
          "system": "http://foo",
          "code": "12345"
        } ]
      },
      "subject": {
        "reference": "Patient/597370"
      },
      "effectiveDateTime": "2023-04-19T09:34:50+01:00",
      "valueQuantity": {
        "value": 123,
        "unit": "kg",
        "system": "http://bar",
        "code": "kg"
      }
    },
    "search": {
      "mode": "include"
    }
  }, {
    "fullUrl": "https://hapi.fhir.org/baseR4/Observation/10321562",
    "resource": {
      "resourceType": "Observation",
      "id": "10321562",
      "meta": {
        "versionId": "1",
        "lastUpdated": "2023-04-19T10:07:55.995+00:00",
        "source": "#Qsxw5UwkwcPFAojx"
      },
      "code": {
        "coding": [ {
          "system": "http://foo",
          "code": "12345"
        } ]
      },
      "subject": {
        "reference": "Patient/597438"
      },
      "effectiveDateTime": "2023-04-19T09:34:50+01:00",
      "valueQuantity": {
        "value": 123,
        "unit": "kg",
        "system": "http://bar",
        "code": "kg"
      }
    },
    "search": {
      "mode": "include"
    }
  }, {
    "fullUrl": "https://hapi.fhir.org/baseR4/Observation/10321550",
    "resource": {
      "resourceType": "Observation",
      "id": "10321550",
      "meta": {
        "versionId": "1",
        "lastUpdated": "2023-04-19T10:07:55.682+00:00",
        "source": "#7OW00VXQrwYMJweI"
      },
      "code": {
        "coding": [ {
          "system": "http://foo",
          "code": "12345"
        } ]
      },
      "subject": {
        "reference": "Patient/597439"
      },
      "effectiveDateTime": "2023-04-19T09:34:50+01:00",
      "valueQuantity": {
        "value": 123,
        "unit": "kg",
        "system": "http://bar",
        "code": "kg"
      }
    },
    "search": {
      "mode": "include"
    }
  }, {
    "fullUrl": "https://hapi.fhir.org/baseR4/Observation/10322061",
    "resource": {
      "resourceType": "Observation",
      "id": "10322061",
      "meta": {
        "versionId": "1",
        "lastUpdated": "2023-04-19T10:08:11.606+00:00",
        "source": "#1OlQXJJEjNObRk1V"
      },
      "code": {
        "coding": [ {
          "system": "http://foo",
          "code": "12345"
        } ]
      },
      "subject": {
        "reference": "Patient/597392"
      },
      "effectiveDateTime": "2023-04-19T09:34:50+01:00",
      "valueQuantity": {
        "value": 123,
        "unit": "kg",
        "system": "http://bar",
        "code": "kg"
      }
    },
    "search": {
      "mode": "include"
    }
  }, {
    "fullUrl": "https://hapi.fhir.org/baseR4/Observation/10322056",
    "resource": {
      "resourceType": "Observation",
      "id": "10322056",
      "meta": {
        "versionId": "1",
        "lastUpdated": "2023-04-19T10:08:11.489+00:00",
        "source": "#qRtNJUnEdet92Eya"
      },
      "code": {
        "coding": [ {
          "system": "http://foo",
          "code": "12345"
        } ]
      },
      "subject": {
        "reference": "Patient/597391"
      },
      "effectiveDateTime": "2023-04-19T09:34:50+01:00",
      "valueQuantity": {
        "value": 123,
        "unit": "kg",
        "system": "http://bar",
        "code": "kg"
      }
    },
    "search": {
      "mode": "include"
    }
  }, {
    "fullUrl": "https://hapi.fhir.org/baseR4/Observation/10322049",
    "resource": {
      "resourceType": "Observation",
      "id": "10322049",
      "meta": {
        "versionId": "1",
        "lastUpdated": "2023-04-19T10:08:11.272+00:00",
        "source": "#Q5uGP3FCDiv54Rdy"
      },
      "code": {
        "coding": [ {
          "system": "http://foo",
          "code": "12345"
        } ]
      },
      "subject": {
        "reference": "Patient/597393"
      },
      "effectiveDateTime": "2023-04-19T09:34:50+01:00",
      "valueQuantity": {
        "value": 123,
        "unit": "kg",
        "system": "http://bar",
        "code": "kg"
      }
    },
    "search": {
      "mode": "include"
    }
  }, {
    "fullUrl": "https://hapi.fhir.org/baseR4/Observation/10321598",
    "resource": {
      "resourceType": "Observation",
      "id": "10321598",
      "meta": {
        "versionId": "1",
        "lastUpdated": "2023-04-19T10:07:57.045+00:00",
        "source": "#jmR4Wvm3nwCfl3z9"
      },
      "code": {
        "coding": [ {
          "system": "http://foo",
          "code": "12345"
        } ]
      },
      "subject": {
        "reference": "Patient/597459"
      },
      "effectiveDateTime": "2023-04-19T09:34:50+01:00",
      "valueQuantity": {
        "value": 123,
        "unit": "kg",
        "system": "http://bar",
        "code": "kg"
      }
    },
    "search": {
      "mode": "include"
    }
  }, {
    "fullUrl": "https://hapi.fhir.org/baseR4/Observation/10322112",
    "resource": {
      "resourceType": "Observation",
      "id": "10322112",
      "meta": {
        "versionId": "1",
        "lastUpdated": "2023-04-19T10:08:12.930+00:00",
        "source": "#WB4ODX8I6HeJCfIw"
      },
      "code": {
        "coding": [ {
          "system": "http://foo",
          "code": "12345"
        } ]
      },
      "subject": {
        "reference": "Patient/597359"
      },
      "effectiveDateTime": "2023-04-19T09:34:50+01:00",
      "valueQuantity": {
        "value": 123,
        "unit": "kg",
        "system": "http://bar",
        "code": "kg"
      }
    },
    "search": {
      "mode": "include"
    }
  }, {
    "fullUrl": "https://hapi.fhir.org/baseR4/Observation/10321593",
    "resource": {
      "resourceType": "Observation",
      "id": "10321593",
      "meta": {
        "versionId": "1",
        "lastUpdated": "2023-04-19T10:07:56.871+00:00",
        "source": "#b6B4s9CFIR0E0qWG"
      },
      "code": {
        "coding": [ {
          "system": "http://foo",
          "code": "12345"
        } ]
      },
      "subject": {
        "reference": "Patient/597458"
      },
      "effectiveDateTime": "2023-04-19T09:34:50+01:00",
      "valueQuantity": {
        "value": 123,
        "unit": "kg",
        "system": "http://bar",
        "code": "kg"
      }
    },
    "search": {
      "mode": "include"
    }
  }, {
    "fullUrl": "https://hapi.fhir.org/baseR4/Observation/10321585",
    "resource": {
      "resourceType": "Observation",
      "id": "10321585",
      "meta": {
        "versionId": "1",
        "lastUpdated": "2023-04-19T10:07:56.705+00:00",
        "source": "#jjZpWG7N4pSsyRuL"
      },
      "code": {
        "coding": [ {
          "system": "http://foo",
          "code": "12345"
        } ]
      },
      "subject": {
        "reference": "Patient/597446"
      },
      "effectiveDateTime": "2023-04-19T09:34:50+01:00",
      "valueQuantity": {
        "value": 123,
        "unit": "kg",
        "system": "http://bar",
        "code": "kg"
      }
    },
    "search": {
      "mode": "include"
    }
  }, {
    "fullUrl": "https://hapi.fhir.org/baseR4/Observation/10321581",
    "resource": {
      "resourceType": "Observation",
      "id": "10321581",
      "meta": {
        "versionId": "1",
        "lastUpdated": "2023-04-19T10:07:56.571+00:00",
        "source": "#uKnkZF8t0tzCwn5O"
      },
      "code": {
        "coding": [ {
          "system": "http://foo",
          "code": "12345"
        } ]
      },
      "subject": {
        "reference": "Patient/597447"
      },
      "effectiveDateTime": "2023-04-19T09:34:50+01:00",
      "valueQuantity": {
        "value": 123,
        "unit": "kg",
        "system": "http://bar",
        "code": "kg"
      }
    },
    "search": {
      "mode": "include"
    }
  }, {
    "fullUrl": "https://hapi.fhir.org/baseR4/Observation/10321574",
    "resource": {
      "resourceType": "Observation",
      "id": "10321574",
      "meta": {
        "versionId": "1",
        "lastUpdated": "2023-04-19T10:07:56.345+00:00",
        "source": "#AJLOl3NylUYrzBKi"
      },
      "code": {
        "coding": [ {
          "system": "http://foo",
          "code": "12345"
        } ]
      },
      "subject": {
        "reference": "Patient/597430"
      },
      "effectiveDateTime": "2023-04-19T09:34:50+01:00",
      "valueQuantity": {
        "value": 123,
        "unit": "kg",
        "system": "http://bar",
        "code": "kg"
      }
    },
    "search": {
      "mode": "include"
    }
  }, {
    "fullUrl": "https://hapi.fhir.org/baseR4/Observation/10321571",
    "resource": {
      "resourceType": "Observation",
      "id": "10321571",
      "meta": {
        "versionId": "1",
        "lastUpdated": "2023-04-19T10:07:56.265+00:00",
        "source": "#tdOlkZMTbMdYHhU0"
      },
      "code": {
        "coding": [ {
          "system": "http://foo",
          "code": "12345"
        } ]
      },
      "subject": {
        "reference": "Patient/597431"
      },
      "effectiveDateTime": "2023-04-19T09:34:50+01:00",
      "valueQuantity": {
        "value": 123,
        "unit": "kg",
        "system": "http://bar",
        "code": "kg"
      }
    },
    "search": {
      "mode": "include"
    }
  }, {
    "fullUrl": "https://hapi.fhir.org/baseR4/Observation/10322142",
    "resource": {
      "resourceType": "Observation",
      "id": "10322142",
      "meta": {
        "versionId": "1",
        "lastUpdated": "2023-04-19T10:08:13.733+00:00",
        "source": "#o0XYpKp5c9p56XaU"
      },
      "code": {
        "coding": [ {
          "system": "http://foo",
          "code": "12345"
        } ]
      },
      "subject": {
        "reference": "Patient/597365"
      },
      "effectiveDateTime": "2023-04-19T09:34:50+01:00",
      "valueQuantity": {
        "value": 123,
        "unit": "kg",
        "system": "http://bar",
        "code": "kg"
      }
    },
    "search": {
      "mode": "include"
    }
  }, {
    "fullUrl": "https://hapi.fhir.org/baseR4/Observation/10322141",
    "resource": {
      "resourceType": "Observation",
      "id": "10322141",
      "meta": {
        "versionId": "1",
        "lastUpdated": "2023-04-19T10:08:13.711+00:00",
        "source": "#CVorpAjgr1F8PNgI"
      },
      "code": {
        "coding": [ {
          "system": "http://foo",
          "code": "12345"
        } ]
      },
      "subject": {
        "reference": "Patient/597369"
      },
      "effectiveDateTime": "2023-04-19T09:34:50+01:00",
      "valueQuantity": {
        "value": 123,
        "unit": "kg",
        "system": "http://bar",
        "code": "kg"
      }
    },
    "search": {
      "mode": "include"
    }
  }, {
    "fullUrl": "https://hapi.fhir.org/baseR4/Observation/10322138",
    "resource": {
      "resourceType": "Observation",
      "id": "10322138",
      "meta": {
        "versionId": "1",
        "lastUpdated": "2023-04-19T10:08:13.618+00:00",
        "source": "#ZxhrTeGbyeOnnsBR"
      },
      "code": {
        "coding": [ {
          "system": "http://foo",
          "code": "12345"
        } ]
      },
      "subject": {
        "reference": "Patient/597368"
      },
      "effectiveDateTime": "2023-04-19T09:34:50+01:00",
      "valueQuantity": {
        "value": 123,
        "unit": "kg",
        "system": "http://bar",
        "code": "kg"
      }
    },
    "search": {
      "mode": "include"
    }
  }, {
    "fullUrl": "https://hapi.fhir.org/baseR4/Observation/10322137",
    "resource": {
      "resourceType": "Observation",
      "id": "10322137",
      "meta": {
        "versionId": "1",
        "lastUpdated": "2023-04-19T10:08:13.566+00:00",
        "source": "#DyYbELLJAWZTY93F"
      },
      "code": {
        "coding": [ {
          "system": "http://foo",
          "code": "12345"
        } ]
      },
      "subject": {
        "reference": "Patient/597367"
      },
      "effectiveDateTime": "2023-04-19T09:34:50+01:00",
      "valueQuantity": {
        "value": 123,
        "unit": "kg",
        "system": "http://bar",
        "code": "kg"
      }
    },
    "search": {
      "mode": "include"
    }
  }, {
    "fullUrl": "https://hapi.fhir.org/baseR4/Observation/10321625",
    "resource": {
      "resourceType": "Observation",
      "id": "10321625",
      "meta": {
        "versionId": "1",
        "lastUpdated": "2023-04-19T10:07:57.885+00:00",
        "source": "#8qwojPEZ2e7UX0JZ"
      },
      "code": {
        "coding": [ {
          "system": "http://foo",
          "code": "12345"
        } ]
      },
      "subject": {
        "reference": "Patient/597461"
      },
      "effectiveDateTime": "2023-04-19T09:34:50+01:00",
      "valueQuantity": {
        "value": 123,
        "unit": "kg",
        "system": "http://bar",
        "code": "kg"
      }
    },
    "search": {
      "mode": "include"
    }
  }, {
    "fullUrl": "https://hapi.fhir.org/baseR4/Observation/10322140",
    "resource": {
      "resourceType": "Observation",
      "id": "10322140",
      "meta": {
        "versionId": "1",
        "lastUpdated": "2023-04-19T10:08:13.666+00:00",
        "source": "#CBc04AjThNjrsrU2"
      },
      "code": {
        "coding": [ {
          "system": "http://foo",
          "code": "12345"
        } ]
      },
      "subject": {
        "reference": "Patient/597366"
      },
      "effectiveDateTime": "2023-04-19T09:34:50+01:00",
      "valueQuantity": {
        "value": 123,
        "unit": "kg",
        "system": "http://bar",
        "code": "kg"
      }
    },
    "search": {
      "mode": "include"
    }
  }, {
    "fullUrl": "https://hapi.fhir.org/baseR4/Observation/10321627",
    "resource": {
      "resourceType": "Observation",
      "id": "10321627",
      "meta": {
        "versionId": "1",
        "lastUpdated": "2023-04-19T10:07:57.917+00:00",
        "source": "#8I6hAqhl8BsIOWDG"
      },
      "code": {
        "coding": [ {
          "system": "http://foo",
          "code": "12345"
        } ]
      },
      "subject": {
        "reference": "Patient/597460"
      },
      "effectiveDateTime": "2023-04-19T09:34:50+01:00",
      "valueQuantity": {
        "value": 123,
        "unit": "kg",
        "system": "http://bar",
        "code": "kg"
      }
    },
    "search": {
      "mode": "include"
    }
  }, {
    "fullUrl": "https://hapi.fhir.org/baseR4/Observation/10322134",
    "resource": {
      "resourceType": "Observation",
      "id": "10322134",
      "meta": {
        "versionId": "1",
        "lastUpdated": "2023-04-19T10:08:13.491+00:00",
        "source": "#El3G1DM5gfiz2QtU"
      },
      "code": {
        "coding": [ {
          "system": "http://foo",
          "code": "12345"
        } ]
      },
      "subject": {
        "reference": "Patient/597352"
      },
      "effectiveDateTime": "2023-04-19T09:34:50+01:00",
      "valueQuantity": {
        "value": 123,
        "unit": "kg",
        "system": "http://bar",
        "code": "kg"
      }
    },
    "search": {
      "mode": "include"
    }
  }, {
    "fullUrl": "https://hapi.fhir.org/baseR4/Observation/10321623",
    "resource": {
      "resourceType": "Observation",
      "id": "10321623",
      "meta": {
        "versionId": "1",
        "lastUpdated": "2023-04-19T10:07:57.773+00:00",
        "source": "#mZ5YJ0SYdoA9L1IK"
      },
      "code": {
        "coding": [ {
          "system": "http://foo",
          "code": "12345"
        } ]
      },
      "subject": {
        "reference": "Patient/597462"
      },
      "effectiveDateTime": "2023-04-19T09:34:50+01:00",
      "valueQuantity": {
        "value": 123,
        "unit": "kg",
        "system": "http://bar",
        "code": "kg"
      }
    },
    "search": {
      "mode": "include"
    }
  }, {
    "fullUrl": "https://hapi.fhir.org/baseR4/Observation/10312190",
    "resource": {
      "resourceType": "Observation",
      "id": "10312190",
      "meta": {
        "versionId": "1",
        "lastUpdated": "2023-04-19T10:02:56.498+00:00",
        "source": "#lQ7dKoIAb88FML3y"
      },
      "code": {
        "coding": [ {
          "system": "http://foo",
          "code": "12345"
        } ]
      },
      "subject": {
        "reference": "Patient/597385"
      },
      "effectiveDateTime": "2023-04-19T09:34:50+01:00",
      "valueQuantity": {
        "value": 123,
        "unit": "kg",
        "system": "http://bar",
        "code": "kg"
      }
    },
    "search": {
      "mode": "include"
    }
  }, {
    "fullUrl": "https://hapi.fhir.org/baseR4/Observation/10312191",
    "resource": {
      "resourceType": "Observation",
      "id": "10312191",
      "meta": {
        "versionId": "1",
        "lastUpdated": "2023-04-19T10:02:56.499+00:00",
        "source": "#h9fRg19891JgoeRO"
      },
      "code": {
        "coding": [ {
          "system": "http://foo",
          "code": "12345"
        } ]
      },
      "subject": {
        "reference": "Patient/597381"
      },
      "effectiveDateTime": "2023-04-19T09:34:50+01:00",
      "valueQuantity": {
        "value": 123,
        "unit": "kg",
        "system": "http://bar",
        "code": "kg"
      }
    },
    "search": {
      "mode": "include"
    }
  }, {
    "fullUrl": "https://hapi.fhir.org/baseR4/Observation/10312186",
    "resource": {
      "resourceType": "Observation",
      "id": "10312186",
      "meta": {
        "versionId": "1",
        "lastUpdated": "2023-04-19T10:02:56.426+00:00",
        "source": "#TxtY5roo0erpr3ul"
      },
      "code": {
        "coding": [ {
          "system": "http://foo",
          "code": "12345"
        } ]
      },
      "subject": {
        "reference": "Patient/597388"
      },
      "effectiveDateTime": "2023-04-19T09:34:50+01:00",
      "valueQuantity": {
        "value": 123,
        "unit": "kg",
        "system": "http://bar",
        "code": "kg"
      }
    },
    "search": {
      "mode": "include"
    }
  }, {
    "fullUrl": "https://hapi.fhir.org/baseR4/Observation/10312185",
    "resource": {
      "resourceType": "Observation",
      "id": "10312185",
      "meta": {
        "versionId": "1",
        "lastUpdated": "2023-04-19T10:02:56.379+00:00",
        "source": "#asIbfTkjmEfh0vin"
      },
      "code": {
        "coding": [ {
          "system": "http://foo",
          "code": "12345"
        } ]
      },
      "subject": {
        "reference": "Patient/597389"
      },
      "effectiveDateTime": "2023-04-19T09:34:50+01:00",
      "valueQuantity": {
        "value": 123,
        "unit": "kg",
        "system": "http://bar",
        "code": "kg"
      }
    },
    "search": {
      "mode": "include"
    }
  }, {
    "fullUrl": "https://hapi.fhir.org/baseR4/Observation/10312188",
    "resource": {
      "resourceType": "Observation",
      "id": "10312188",
      "meta": {
        "versionId": "1",
        "lastUpdated": "2023-04-19T10:02:56.478+00:00",
        "source": "#fSVVkUUci0B3Hvdy"
      },
      "code": {
        "coding": [ {
          "system": "http://foo",
          "code": "12345"
        } ]
      },
      "subject": {
        "reference": "Patient/597383"
      },
      "effectiveDateTime": "2023-04-19T09:34:50+01:00",
      "valueQuantity": {
        "value": 123,
        "unit": "kg",
        "system": "http://bar",
        "code": "kg"
      }
    },
    "search": {
      "mode": "include"
    }
  }, {
    "fullUrl": "https://hapi.fhir.org/baseR4/Observation/10312187",
    "resource": {
      "resourceType": "Observation",
      "id": "10312187",
      "meta": {
        "versionId": "1",
        "lastUpdated": "2023-04-19T10:02:56.473+00:00",
        "source": "#tdp1uIGJQ79Cy5Ok"
      },
      "code": {
        "coding": [ {
          "system": "http://foo",
          "code": "12345"
        } ]
      },
      "subject": {
        "reference": "Patient/597382"
      },
      "effectiveDateTime": "2023-04-19T09:34:50+01:00",
      "valueQuantity": {
        "value": 123,
        "unit": "kg",
        "system": "http://bar",
        "code": "kg"
      }
    },
    "search": {
      "mode": "include"
    }
  }, {
    "fullUrl": "https://hapi.fhir.org/baseR4/Observation/10312184",
    "resource": {
      "resourceType": "Observation",
      "id": "10312184",
      "meta": {
        "versionId": "1",
        "lastUpdated": "2023-04-19T10:02:56.275+00:00",
        "source": "#6uaAM3BGD1d8oKRP"
      },
      "code": {
        "coding": [ {
          "system": "http://foo",
          "code": "12345"
        } ]
      },
      "subject": {
        "reference": "Patient/597386"
      },
      "effectiveDateTime": "2023-04-19T09:34:50+01:00",
      "valueQuantity": {
        "value": 123,
        "unit": "kg",
        "system": "http://bar",
        "code": "kg"
      }
    },
    "search": {
      "mode": "include"
    }
  }, {
    "fullUrl": "https://hapi.fhir.org/baseR4/Observation/10312183",
    "resource": {
      "resourceType": "Observation",
      "id": "10312183",
      "meta": {
        "versionId": "1",
        "lastUpdated": "2023-04-19T10:02:56.261+00:00",
        "source": "#jEFRseLVnHi8Cwj2"
      },
      "code": {
        "coding": [ {
          "system": "http://foo",
          "code": "12345"
        } ]
      },
      "subject": {
        "reference": "Patient/597387"
      },
      "effectiveDateTime": "2023-04-19T09:34:50+01:00",
      "valueQuantity": {
        "value": 123,
        "unit": "kg",
        "system": "http://bar",
        "code": "kg"
      }
    },
    "search": {
      "mode": "include"
    }
  }, {
    "fullUrl": "https://hapi.fhir.org/baseR4/Observation/10311665",
    "resource": {
      "resourceType": "Observation",
      "id": "10311665",
      "meta": {
        "versionId": "1",
        "lastUpdated": "2023-04-19T10:02:37.996+00:00",
        "source": "#KEz5FbRPSgawcORl"
      },
      "code": {
        "coding": [ {
          "system": "http://foo",
          "code": "12345"
        } ]
      },
      "subject": {
        "reference": "Patient/597415"
      },
      "effectiveDateTime": "2023-04-19T09:34:50+01:00",
      "valueQuantity": {
        "value": 123,
        "unit": "kg",
        "system": "http://bar",
        "code": "kg"
      }
    },
    "search": {
      "mode": "include"
    }
  }, {
    "fullUrl": "https://hapi.fhir.org/baseR4/Observation/10311668",
    "resource": {
      "resourceType": "Observation",
      "id": "10311668",
      "meta": {
        "versionId": "1",
        "lastUpdated": "2023-04-19T10:02:38.119+00:00",
        "source": "#v6sij2OJJq4gY5DU"
      },
      "code": {
        "coding": [ {
          "system": "http://foo",
          "code": "12345"
        } ]
      },
      "subject": {
        "reference": "Patient/597414"
      },
      "effectiveDateTime": "2023-04-19T09:34:50+01:00",
      "valueQuantity": {
        "value": 123,
        "unit": "kg",
        "system": "http://bar",
        "code": "kg"
      }
    },
    "search": {
      "mode": "include"
    }
  }, {
    "fullUrl": "https://hapi.fhir.org/baseR4/Observation/10312173",
    "resource": {
      "resourceType": "Observation",
      "id": "10312173",
      "meta": {
        "versionId": "1",
        "lastUpdated": "2023-04-19T10:02:55.980+00:00",
        "source": "#tYhL85k3S5R3EqfA"
      },
      "code": {
        "coding": [ {
          "system": "http://foo",
          "code": "12345"
        } ]
      },
      "subject": {
        "reference": "Patient/597374"
      },
      "effectiveDateTime": "2023-04-19T09:34:50+01:00",
      "valueQuantity": {
        "value": 123,
        "unit": "kg",
        "system": "http://bar",
        "code": "kg"
      }
    },
    "search": {
      "mode": "include"
    }
  }, {
    "fullUrl": "https://hapi.fhir.org/baseR4/Observation/10307053",
    "resource": {
      "resourceType": "Observation",
      "id": "10307053",
      "meta": {
        "versionId": "1",
        "lastUpdated": "2023-04-19T09:59:38.099+00:00",
        "source": "#USp135LoOheRKEfw"
      },
      "code": {
        "coding": [ {
          "system": "http://foo",
          "code": "12345"
        } ]
      },
      "subject": {
        "reference": "Patient/597392"
      },
      "effectiveDateTime": "2023-04-19T09:34:50+01:00",
      "valueQuantity": {
        "value": 123,
        "unit": "kg",
        "system": "http://bar",
        "code": "kg"
      }
    },
    "search": {
      "mode": "include"
    }
  }, {
    "fullUrl": "https://hapi.fhir.org/baseR4/Observation/10307055",
    "resource": {
      "resourceType": "Observation",
      "id": "10307055",
      "meta": {
        "versionId": "1",
        "lastUpdated": "2023-04-19T09:59:38.121+00:00",
        "source": "#P83LYou9a1JLIFsE"
      },
      "code": {
        "coding": [ {
          "system": "http://foo",
          "code": "12345"
        } ]
      },
      "subject": {
        "reference": "Patient/597391"
      },
      "effectiveDateTime": "2023-04-19T09:34:50+01:00",
      "valueQuantity": {
        "value": 123,
        "unit": "kg",
        "system": "http://bar",
        "code": "kg"
      }
    },
    "search": {
      "mode": "include"
    }
  }, {
    "fullUrl": "https://hapi.fhir.org/baseR4/Observation/10312170",
    "resource": {
      "resourceType": "Observation",
      "id": "10312170",
      "meta": {
        "versionId": "1",
        "lastUpdated": "2023-04-19T10:02:55.919+00:00",
        "source": "#4aBM14mT5unlyeU9"
      },
      "code": {
        "coding": [ {
          "system": "http://foo",
          "code": "12345"
        } ]
      },
      "subject": {
        "reference": "Patient/597373"
      },
      "effectiveDateTime": "2023-04-19T09:34:50+01:00",
      "valueQuantity": {
        "value": 123,
        "unit": "kg",
        "system": "http://bar",
        "code": "kg"
      }
    },
    "search": {
      "mode": "include"
    }
  }, {
    "fullUrl": "https://hapi.fhir.org/baseR4/Observation/10307050",
    "resource": {
      "resourceType": "Observation",
      "id": "10307050",
      "meta": {
        "versionId": "1",
        "lastUpdated": "2023-04-19T09:59:37.934+00:00",
        "source": "#6b75f0dtk8XDcFi8"
      },
      "code": {
        "coding": [ {
          "system": "http://foo",
          "code": "12345"
        } ]
      },
      "subject": {
        "reference": "Patient/597394"
      },
      "effectiveDateTime": "2023-04-19T09:34:50+01:00",
      "valueQuantity": {
        "value": 123,
        "unit": "kg",
        "system": "http://bar",
        "code": "kg"
      }
    },
    "search": {
      "mode": "include"
    }
  }, {
    "fullUrl": "https://hapi.fhir.org/baseR4/Observation/10312169",
    "resource": {
      "resourceType": "Observation",
      "id": "10312169",
      "meta": {
        "versionId": "1",
        "lastUpdated": "2023-04-19T10:02:55.874+00:00",
        "source": "#86YRKBGxLDtyV80m"
      },
      "code": {
        "coding": [ {
          "system": "http://foo",
          "code": "12345"
        } ]
      },
      "subject": {
        "reference": "Patient/597371"
      },
      "effectiveDateTime": "2023-04-19T09:34:50+01:00",
      "valueQuantity": {
        "value": 123,
        "unit": "kg",
        "system": "http://bar",
        "code": "kg"
      }
    },
    "search": {
      "mode": "include"
    }
  }, {
    "fullUrl": "https://hapi.fhir.org/baseR4/Observation/10307052",
    "resource": {
      "resourceType": "Observation",
      "id": "10307052",
      "meta": {
        "versionId": "1",
        "lastUpdated": "2023-04-19T09:59:38.089+00:00",
        "source": "#NAPECL9DEzfGO9Ax"
      },
      "code": {
        "coding": [ {
          "system": "http://foo",
          "code": "12345"
        } ]
      },
      "subject": {
        "reference": "Patient/597390"
      },
      "effectiveDateTime": "2023-04-19T09:34:50+01:00",
      "valueQuantity": {
        "value": 123,
        "unit": "kg",
        "system": "http://bar",
        "code": "kg"
      }
    },
    "search": {
      "mode": "include"
    }
  }, {
    "fullUrl": "https://hapi.fhir.org/baseR4/Observation/10312171",
    "resource": {
      "resourceType": "Observation",
      "id": "10312171",
      "meta": {
        "versionId": "1",
        "lastUpdated": "2023-04-19T10:02:55.932+00:00",
        "source": "#T5pdO8rcrgPyhEEj"
      },
      "code": {
        "coding": [ {
          "system": "http://foo",
          "code": "12345"
        } ]
      },
      "subject": {
        "reference": "Patient/597370"
      },
      "effectiveDateTime": "2023-04-19T09:34:50+01:00",
      "valueQuantity": {
        "value": 123,
        "unit": "kg",
        "system": "http://bar",
        "code": "kg"
      }
    },
    "search": {
      "mode": "include"
    }
  }, {
    "fullUrl": "https://hapi.fhir.org/baseR4/Observation/10312165",
    "resource": {
      "resourceType": "Observation",
      "id": "10312165",
      "meta": {
        "versionId": "1",
        "lastUpdated": "2023-04-19T10:02:55.777+00:00",
        "source": "#8dAllee8Uh2XKsHv"
      },
      "code": {
        "coding": [ {
          "system": "http://foo",
          "code": "12345"
        } ]
      },
      "subject": {
        "reference": "Patient/597378"
      },
      "effectiveDateTime": "2023-04-19T09:34:50+01:00",
      "valueQuantity": {
        "value": 123,
        "unit": "kg",
        "system": "http://bar",
        "code": "kg"
      }
    },
    "search": {
      "mode": "include"
    }
  }, {
    "fullUrl": "https://hapi.fhir.org/baseR4/Observation/10307048",
    "resource": {
      "resourceType": "Observation",
      "id": "10307048",
      "meta": {
        "versionId": "1",
        "lastUpdated": "2023-04-19T09:59:37.866+00:00",
        "source": "#kf8JbbCkBkt2LOfA"
      },
      "code": {
        "coding": [ {
          "system": "http://foo",
          "code": "12345"
        } ]
      },
      "subject": {
        "reference": "Patient/597395"
      },
      "effectiveDateTime": "2023-04-19T09:34:50+01:00",
      "valueQuantity": {
        "value": 123,
        "unit": "kg",
        "system": "http://bar",
        "code": "kg"
      }
    },
    "search": {
      "mode": "include"
    }
  }, {
    "fullUrl": "https://hapi.fhir.org/baseR4/Observation/10312167",
    "resource": {
      "resourceType": "Observation",
      "id": "10312167",
      "meta": {
        "versionId": "1",
        "lastUpdated": "2023-04-19T10:02:55.814+00:00",
        "source": "#kbAjBfkatcR1prl7"
      },
      "code": {
        "coding": [ {
          "system": "http://foo",
          "code": "12345"
        } ]
      },
      "subject": {
        "reference": "Patient/597377"
      },
      "effectiveDateTime": "2023-04-19T09:34:50+01:00",
      "valueQuantity": {
        "value": 123,
        "unit": "kg",
        "system": "http://bar",
        "code": "kg"
      }
    },
    "search": {
      "mode": "include"
    }
  }, {
    "fullUrl": "https://hapi.fhir.org/baseR4/Observation/10307047",
    "resource": {
      "resourceType": "Observation",
      "id": "10307047",
      "meta": {
        "versionId": "1",
        "lastUpdated": "2023-04-19T09:59:37.700+00:00",
        "source": "#uBMudgAQ1CiNjDkj"
      },
      "code": {
        "coding": [ {
          "system": "http://foo",
          "code": "12345"
        } ]
      },
      "subject": {
        "reference": "Patient/597393"
      },
      "effectiveDateTime": "2023-04-19T09:34:50+01:00",
      "valueQuantity": {
        "value": 123,
        "unit": "kg",
        "system": "http://bar",
        "code": "kg"
      }
    },
    "search": {
      "mode": "include"
    }
  }, {
    "fullUrl": "https://hapi.fhir.org/baseR4/Observation/10312162",
    "resource": {
      "resourceType": "Observation",
      "id": "10312162",
      "meta": {
        "versionId": "1",
        "lastUpdated": "2023-04-19T10:02:55.704+00:00",
        "source": "#19BEYpbD6JuHtoPi"
      },
      "code": {
        "coding": [ {
          "system": "http://foo",
          "code": "12345"
        } ]
      },
      "subject": {
        "reference": "Patient/597376"
      },
      "effectiveDateTime": "2023-04-19T09:34:50+01:00",
      "valueQuantity": {
        "value": 123,
        "unit": "kg",
        "system": "http://bar",
        "code": "kg"
      }
    },
    "search": {
      "mode": "include"
    }
  }, {
    "fullUrl": "https://hapi.fhir.org/baseR4/Observation/10312164",
    "resource": {
      "resourceType": "Observation",
      "id": "10312164",
      "meta": {
        "versionId": "1",
        "lastUpdated": "2023-04-19T10:02:55.760+00:00",
        "source": "#FUaUdf7tx6Idvhqt"
      },
      "code": {
        "coding": [ {
          "system": "http://foo",
          "code": "12345"
        } ]
      },
      "subject": {
        "reference": "Patient/597375"
      },
      "effectiveDateTime": "2023-04-19T09:34:50+01:00",
      "valueQuantity": {
        "value": 123,
        "unit": "kg",
        "system": "http://bar",
        "code": "kg"
      }
    },
    "search": {
      "mode": "include"
    }
  }, {
    "fullUrl": "https://hapi.fhir.org/baseR4/Observation/10311711",
    "resource": {
      "resourceType": "Observation",
      "id": "10311711",
      "meta": {
        "versionId": "1",
        "lastUpdated": "2023-04-19T10:02:39.344+00:00",
        "source": "#WQ7FwxBRsPoIcP2I"
      },
      "code": {
        "coding": [ {
          "system": "http://foo",
          "code": "12345"
        } ]
      },
      "subject": {
        "reference": "Patient/597422"
      },
      "effectiveDateTime": "2023-04-19T09:34:50+01:00",
      "valueQuantity": {
        "value": 123,
        "unit": "kg",
        "system": "http://bar",
        "code": "kg"
      }
    },
    "search": {
      "mode": "include"
    }
  }, {
    "fullUrl": "https://hapi.fhir.org/baseR4/Observation/10311701",
    "resource": {
      "resourceType": "Observation",
      "id": "10311701",
      "meta": {
        "versionId": "1",
        "lastUpdated": "2023-04-19T10:02:39.100+00:00",
        "source": "#D2ePhBlmZdPB221i"
      },
      "code": {
        "coding": [ {
          "system": "http://foo",
          "code": "12345"
        } ]
      },
      "subject": {
        "reference": "Patient/597423"
      },
      "effectiveDateTime": "2023-04-19T09:34:50+01:00",
      "valueQuantity": {
        "value": 123,
        "unit": "kg",
        "system": "http://bar",
        "code": "kg"
      }
    },
    "search": {
      "mode": "include"
    }
  }, {
    "fullUrl": "https://hapi.fhir.org/baseR4/Observation/10312194",
    "resource": {
      "resourceType": "Observation",
      "id": "10312194",
      "meta": {
        "versionId": "1",
        "lastUpdated": "2023-04-19T10:02:56.634+00:00",
        "source": "#UdxiIrdLnHqbSNKP"
      },
      "code": {
        "coding": [ {
          "system": "http://foo",
          "code": "12345"
        } ]
      },
      "subject": {
        "reference": "Patient/597380"
      },
      "effectiveDateTime": "2023-04-19T09:34:50+01:00",
      "valueQuantity": {
        "value": 123,
        "unit": "kg",
        "system": "http://bar",
        "code": "kg"
      }
    },
    "search": {
      "mode": "include"
    }
  }, {
    "fullUrl": "https://hapi.fhir.org/baseR4/Observation/10312195",
    "resource": {
      "resourceType": "Observation",
      "id": "10312195",
      "meta": {
        "versionId": "1",
        "lastUpdated": "2023-04-19T10:02:56.635+00:00",
        "source": "#s6rQF4RyJq9Zqhyj"
      },
      "code": {
        "coding": [ {
          "system": "http://foo",
          "code": "12345"
        } ]
      },
      "subject": {
        "reference": "Patient/597384"
      },
      "effectiveDateTime": "2023-04-19T09:34:50+01:00",
      "valueQuantity": {
        "value": 123,
        "unit": "kg",
        "system": "http://bar",
        "code": "kg"
      }
    },
    "search": {
      "mode": "include"
    }
  }, {
    "fullUrl": "https://hapi.fhir.org/baseR4/Observation/10307125",
    "resource": {
      "resourceType": "Observation",
      "id": "10307125",
      "meta": {
        "versionId": "1",
        "lastUpdated": "2023-04-19T09:59:42.810+00:00",
        "source": "#YBYexgK2FZlWCQXl"
      },
      "code": {
        "coding": [ {
          "system": "http://foo",
          "code": "12345"
        } ]
      },
      "subject": {
        "reference": "Patient/597352"
      },
      "effectiveDateTime": "2023-04-19T09:34:50+01:00",
      "valueQuantity": {
        "value": 123,
        "unit": "kg",
        "system": "http://bar",
        "code": "kg"
      }
    },
    "search": {
      "mode": "include"
    }
  }, {
    "fullUrl": "https://hapi.fhir.org/baseR4/Observation/10307119",
    "resource": {
      "resourceType": "Observation",
      "id": "10307119",
      "meta": {
        "versionId": "1",
        "lastUpdated": "2023-04-19T09:59:42.347+00:00",
        "source": "#i0kISY1dk6bbslTb"
      },
      "code": {
        "coding": [ {
          "system": "http://foo",
          "code": "12345"
        } ]
      },
      "subject": {
        "reference": "Patient/597359"
      },
      "effectiveDateTime": "2023-04-19T09:34:50+01:00",
      "valueQuantity": {
        "value": 123,
        "unit": "kg",
        "system": "http://bar",
        "code": "kg"
      }
    },
    "search": {
      "mode": "include"
    }
  }, {
    "fullUrl": "https://hapi.fhir.org/baseR4/Observation/10307166",
    "resource": {
      "resourceType": "Observation",
      "id": "10307166",
      "meta": {
        "versionId": "1",
        "lastUpdated": "2023-04-19T09:59:44.764+00:00",
        "source": "#lU6I11aAJ1CLE5YH"
      },
      "code": {
        "coding": [ {
          "system": "http://foo",
          "code": "12345"
        } ]
      },
      "subject": {
        "reference": "Patient/597377"
      },
      "effectiveDateTime": "2023-04-19T09:34:50+01:00",
      "valueQuantity": {
        "value": 123,
        "unit": "kg",
        "system": "http://bar",
        "code": "kg"
      }
    },
    "search": {
      "mode": "include"
    }
  }, {
    "fullUrl": "https://hapi.fhir.org/baseR4/Observation/10307167",
    "resource": {
      "resourceType": "Observation",
      "id": "10307167",
      "meta": {
        "versionId": "1",
        "lastUpdated": "2023-04-19T09:59:44.798+00:00",
        "source": "#flrMwjKXoUx4cnHi"
      },
      "code": {
        "coding": [ {
          "system": "http://foo",
          "code": "12345"
        } ]
      },
      "subject": {
        "reference": "Patient/597378"
      },
      "effectiveDateTime": "2023-04-19T09:34:50+01:00",
      "valueQuantity": {
        "value": 123,
        "unit": "kg",
        "system": "http://bar",
        "code": "kg"
      }
    },
    "search": {
      "mode": "include"
    }
  }, {
    "fullUrl": "https://hapi.fhir.org/baseR4/Observation/10307162",
    "resource": {
      "resourceType": "Observation",
      "id": "10307162",
      "meta": {
        "versionId": "1",
        "lastUpdated": "2023-04-19T09:59:44.597+00:00",
        "source": "#sQAtlN4BbNQL3V34"
      },
      "code": {
        "coding": [ {
          "system": "http://foo",
          "code": "12345"
        } ]
      },
      "subject": {
        "reference": "Patient/597376"
      },
      "effectiveDateTime": "2023-04-19T09:34:50+01:00",
      "valueQuantity": {
        "value": 123,
        "unit": "kg",
        "system": "http://bar",
        "code": "kg"
      }
    },
    "search": {
      "mode": "include"
    }
  }, {
    "fullUrl": "https://hapi.fhir.org/baseR4/Observation/10307164",
    "resource": {
      "resourceType": "Observation",
      "id": "10307164",
      "meta": {
        "versionId": "1",
        "lastUpdated": "2023-04-19T09:59:44.686+00:00",
        "source": "#LPu71cvYQALICFhx"
      },
      "code": {
        "coding": [ {
          "system": "http://foo",
          "code": "12345"
        } ]
      },
      "subject": {
        "reference": "Patient/597375"
      },
      "effectiveDateTime": "2023-04-19T09:34:50+01:00",
      "valueQuantity": {
        "value": 123,
        "unit": "kg",
        "system": "http://bar",
        "code": "kg"
      }
    },
    "search": {
      "mode": "include"
    }
  }, {
    "fullUrl": "https://hapi.fhir.org/baseR4/Observation/10307145",
    "resource": {
      "resourceType": "Observation",
      "id": "10307145",
      "meta": {
        "versionId": "1",
        "lastUpdated": "2023-04-19T09:59:43.837+00:00",
        "source": "#PGlIAhbJjVyjfeyF"
      },
      "code": {
        "coding": [ {
          "system": "http://foo",
          "code": "12345"
        } ]
      },
      "subject": {
        "reference": "Patient/597366"
      },
      "effectiveDateTime": "2023-04-19T09:34:50+01:00",
      "valueQuantity": {
        "value": 123,
        "unit": "kg",
        "system": "http://bar",
        "code": "kg"
      }
    },
    "search": {
      "mode": "include"
    }
  }, {
    "fullUrl": "https://hapi.fhir.org/baseR4/Observation/10307147",
    "resource": {
      "resourceType": "Observation",
      "id": "10307147",
      "meta": {
        "versionId": "1",
        "lastUpdated": "2023-04-19T09:59:43.905+00:00",
        "source": "#lV6HDgskSk6lJmBi"
      },
      "code": {
        "coding": [ {
          "system": "http://foo",
          "code": "12345"
        } ]
      },
      "subject": {
        "reference": "Patient/597362"
      },
      "effectiveDateTime": "2023-04-19T09:34:50+01:00",
      "valueQuantity": {
        "value": 123,
        "unit": "kg",
        "system": "http://bar",
        "code": "kg"
      }
    },
    "search": {
      "mode": "include"
    }
  }, {
    "fullUrl": "https://hapi.fhir.org/baseR4/Observation/10307142",
    "resource": {
      "resourceType": "Observation",
      "id": "10307142",
      "meta": {
        "versionId": "1",
        "lastUpdated": "2023-04-19T09:59:43.684+00:00",
        "source": "#aT90wOEa7ex4z6GU"
      },
      "code": {
        "coding": [ {
          "system": "http://foo",
          "code": "12345"
        } ]
      },
      "subject": {
        "reference": "Patient/597368"
      },
      "effectiveDateTime": "2023-04-19T09:34:50+01:00",
      "valueQuantity": {
        "value": 123,
        "unit": "kg",
        "system": "http://bar",
        "code": "kg"
      }
    },
    "search": {
      "mode": "include"
    }
  }, {
    "fullUrl": "https://hapi.fhir.org/baseR4/Observation/10307141",
    "resource": {
      "resourceType": "Observation",
      "id": "10307141",
      "meta": {
        "versionId": "1",
        "lastUpdated": "2023-04-19T09:59:43.669+00:00",
        "source": "#NLs4mDBOLM08kEmv"
      },
      "code": {
        "coding": [ {
          "system": "http://foo",
          "code": "12345"
        } ]
      },
      "subject": {
        "reference": "Patient/597364"
      },
      "effectiveDateTime": "2023-04-19T09:34:50+01:00",
      "valueQuantity": {
        "value": 123,
        "unit": "kg",
        "system": "http://bar",
        "code": "kg"
      }
    },
    "search": {
      "mode": "include"
    }
  }, {
    "fullUrl": "https://hapi.fhir.org/baseR4/Observation/10307144",
    "resource": {
      "resourceType": "Observation",
      "id": "10307144",
      "meta": {
        "versionId": "1",
        "lastUpdated": "2023-04-19T09:59:43.834+00:00",
        "source": "#EqPPBOHjRz3cN74g"
      },
      "code": {
        "coding": [ {
          "system": "http://foo",
          "code": "12345"
        } ]
      },
      "subject": {
        "reference": "Patient/597367"
      },
      "effectiveDateTime": "2023-04-19T09:34:50+01:00",
      "valueQuantity": {
        "value": 123,
        "unit": "kg",
        "system": "http://bar",
        "code": "kg"
      }
    },
    "search": {
      "mode": "include"
    }
  }, {
    "fullUrl": "https://hapi.fhir.org/baseR4/Observation/10307143",
    "resource": {
      "resourceType": "Observation",
      "id": "10307143",
      "meta": {
        "versionId": "1",
        "lastUpdated": "2023-04-19T09:59:43.739+00:00",
        "source": "#Evo3wciREGZobLt5"
      },
      "code": {
        "coding": [ {
          "system": "http://foo",
          "code": "12345"
        } ]
      },
      "subject": {
        "reference": "Patient/597365"
      },
      "effectiveDateTime": "2023-04-19T09:34:50+01:00",
      "valueQuantity": {
        "value": 123,
        "unit": "kg",
        "system": "http://bar",
        "code": "kg"
      }
    },
    "search": {
      "mode": "include"
    }
  }, {
    "fullUrl": "https://hapi.fhir.org/baseR4/Observation/10307139",
    "resource": {
      "resourceType": "Observation",
      "id": "10307139",
      "meta": {
        "versionId": "1",
        "lastUpdated": "2023-04-19T09:59:43.647+00:00",
        "source": "#KT8tKIJXrWFAj9bA"
      },
      "code": {
        "coding": [ {
          "system": "http://foo",
          "code": "12345"
        } ]
      },
      "subject": {
        "reference": "Patient/597369"
      },
      "effectiveDateTime": "2023-04-19T09:34:50+01:00",
      "valueQuantity": {
        "value": 123,
        "unit": "kg",
        "system": "http://bar",
        "code": "kg"
      }
    },
    "search": {
      "mode": "include"
    }
  }, {
    "fullUrl": "https://hapi.fhir.org/baseR4/Observation/10317184",
    "resource": {
      "resourceType": "Observation",
      "id": "10317184",
      "meta": {
        "versionId": "1",
        "lastUpdated": "2023-04-19T10:05:39.729+00:00",
        "source": "#b22Fl3nG8dpNBRfZ"
      },
      "code": {
        "coding": [ {
          "system": "http://foo",
          "code": "12345"
        } ]
      },
      "subject": {
        "reference": "Patient/597386"
      },
      "effectiveDateTime": "2023-04-19T09:34:50+01:00",
      "valueQuantity": {
        "value": 123,
        "unit": "kg",
        "system": "http://bar",
        "code": "kg"
      }
    },
    "search": {
      "mode": "include"
    }
  }, {
    "fullUrl": "https://hapi.fhir.org/baseR4/Observation/10316672",
    "resource": {
      "resourceType": "Observation",
      "id": "10316672",
      "meta": {
        "versionId": "1",
        "lastUpdated": "2023-04-19T10:05:23.284+00:00",
        "source": "#AtkbS99Qh0xFXXGh"
      },
      "code": {
        "coding": [ {
          "system": "http://foo",
          "code": "12345"
        } ]
      },
      "subject": {
        "reference": "Patient/597415"
      },
      "effectiveDateTime": "2023-04-19T09:34:50+01:00",
      "valueQuantity": {
        "value": 123,
        "unit": "kg",
        "system": "http://bar",
        "code": "kg"
      }
    },
    "search": {
      "mode": "include"
    }
  }, {
    "fullUrl": "https://hapi.fhir.org/baseR4/Observation/10312058",
    "resource": {
      "resourceType": "Observation",
      "id": "10312058",
      "meta": {
        "versionId": "1",
        "lastUpdated": "2023-04-19T10:02:51.917+00:00",
        "source": "#PHW5Ft2SBoF4dnUC"
      },
      "code": {
        "coding": [ {
          "system": "http://foo",
          "code": "12345"
        } ]
      },
      "subject": {
        "reference": "Patient/597391"
      },
      "effectiveDateTime": "2023-04-19T09:34:50+01:00",
      "valueQuantity": {
        "value": 123,
        "unit": "kg",
        "system": "http://bar",
        "code": "kg"
      }
    },
    "search": {
      "mode": "include"
    }
  }, {
    "fullUrl": "https://hapi.fhir.org/baseR4/Observation/10316665",
    "resource": {
      "resourceType": "Observation",
      "id": "10316665",
      "meta": {
        "versionId": "1",
        "lastUpdated": "2023-04-19T10:05:23.097+00:00",
        "source": "#WdmfLjMpneGKCOEu"
      },
      "code": {
        "coding": [ {
          "system": "http://foo",
          "code": "12345"
        } ]
      },
      "subject": {
        "reference": "Patient/597414"
      },
      "effectiveDateTime": "2023-04-19T09:34:50+01:00",
      "valueQuantity": {
        "value": 123,
        "unit": "kg",
        "system": "http://bar",
        "code": "kg"
      }
    },
    "search": {
      "mode": "include"
    }
  }, {
    "fullUrl": "https://hapi.fhir.org/baseR4/Observation/10317180",
    "resource": {
      "resourceType": "Observation",
      "id": "10317180",
      "meta": {
        "versionId": "1",
        "lastUpdated": "2023-04-19T10:05:39.657+00:00",
        "source": "#gzE102PEPWZaQuCf"
      },
      "code": {
        "coding": [ {
          "system": "http://foo",
          "code": "12345"
        } ]
      },
      "subject": {
        "reference": "Patient/597387"
      },
      "effectiveDateTime": "2023-04-19T09:34:50+01:00",
      "valueQuantity": {
        "value": 123,
        "unit": "kg",
        "system": "http://bar",
        "code": "kg"
      }
    },
    "search": {
      "mode": "include"
    }
  }, {
    "fullUrl": "https://hapi.fhir.org/baseR4/Observation/10317174",
    "resource": {
      "resourceType": "Observation",
      "id": "10317174",
      "meta": {
        "versionId": "1",
        "lastUpdated": "2023-04-19T10:05:39.499+00:00",
        "source": "#rfGTJn0ln6vfv8iy"
      },
      "code": {
        "coding": [ {
          "system": "http://foo",
          "code": "12345"
        } ]
      },
      "subject": {
        "reference": "Patient/597370"
      },
      "effectiveDateTime": "2023-04-19T09:34:50+01:00",
      "valueQuantity": {
        "value": 123,
        "unit": "kg",
        "system": "http://bar",
        "code": "kg"
      }
    },
    "search": {
      "mode": "include"
    }
  }, {
    "fullUrl": "https://hapi.fhir.org/baseR4/Observation/10317173",
    "resource": {
      "resourceType": "Observation",
      "id": "10317173",
      "meta": {
        "versionId": "1",
        "lastUpdated": "2023-04-19T10:05:39.499+00:00",
        "source": "#gUljGqMBy8hJ8toy"
      },
      "code": {
        "coding": [ {
          "system": "http://foo",
          "code": "12345"
        } ]
      },
      "subject": {
        "reference": "Patient/597373"
      },
      "effectiveDateTime": "2023-04-19T09:34:50+01:00",
      "valueQuantity": {
        "value": 123,
        "unit": "kg",
        "system": "http://bar",
        "code": "kg"
      }
    },
    "search": {
      "mode": "include"
    }
  }, {
    "fullUrl": "https://hapi.fhir.org/baseR4/Observation/10312053",
    "resource": {
      "resourceType": "Observation",
      "id": "10312053",
      "meta": {
        "versionId": "1",
        "lastUpdated": "2023-04-19T10:02:51.791+00:00",
        "source": "#AAWwyHM92Lhfgf6w"
      },
      "code": {
        "coding": [ {
          "system": "http://foo",
          "code": "12345"
        } ]
      },
      "subject": {
        "reference": "Patient/597390"
      },
      "effectiveDateTime": "2023-04-19T09:34:50+01:00",
      "valueQuantity": {
        "value": 123,
        "unit": "kg",
        "system": "http://bar",
        "code": "kg"
      }
    },
    "search": {
      "mode": "include"
    }
  }, {
    "fullUrl": "https://hapi.fhir.org/baseR4/Observation/10317175",
    "resource": {
      "resourceType": "Observation",
      "id": "10317175",
      "meta": {
        "versionId": "1",
        "lastUpdated": "2023-04-19T10:05:39.553+00:00",
        "source": "#XozfssywsQnG2Oc2"
      },
      "code": {
        "coding": [ {
          "system": "http://foo",
          "code": "12345"
        } ]
      },
      "subject": {
        "reference": "Patient/597374"
      },
      "effectiveDateTime": "2023-04-19T09:34:50+01:00",
      "valueQuantity": {
        "value": 123,
        "unit": "kg",
        "system": "http://bar",
        "code": "kg"
      }
    },
    "search": {
      "mode": "include"
    }
  }, {
    "fullUrl": "https://hapi.fhir.org/baseR4/Observation/10317169",
    "resource": {
      "resourceType": "Observation",
      "id": "10317169",
      "meta": {
        "versionId": "1",
        "lastUpdated": "2023-04-19T10:05:39.347+00:00",
        "source": "#fF2eFymefdDGEEVl"
      },
      "code": {
        "coding": [ {
          "system": "http://foo",
          "code": "12345"
        } ]
      },
      "subject": {
        "reference": "Patient/597371"
      },
      "effectiveDateTime": "2023-04-19T09:34:50+01:00",
      "valueQuantity": {
        "value": 123,
        "unit": "kg",
        "system": "http://bar",
        "code": "kg"
      }
    },
    "search": {
      "mode": "include"
    }
  }, {
    "fullUrl": "https://hapi.fhir.org/baseR4/Observation/10312049",
    "resource": {
      "resourceType": "Observation",
      "id": "10312049",
      "meta": {
        "versionId": "1",
        "lastUpdated": "2023-04-19T10:02:51.710+00:00",
        "source": "#iUOYMDKWIeTbcFng"
      },
      "code": {
        "coding": [ {
          "system": "http://foo",
          "code": "12345"
        } ]
      },
      "subject": {
        "reference": "Patient/597393"
      },
      "effectiveDateTime": "2023-04-19T09:34:50+01:00",
      "valueQuantity": {
        "value": 123,
        "unit": "kg",
        "system": "http://bar",
        "code": "kg"
      }
    },
    "search": {
      "mode": "include"
    }
  }, {
    "fullUrl": "https://hapi.fhir.org/baseR4/Observation/10312052",
    "resource": {
      "resourceType": "Observation",
      "id": "10312052",
      "meta": {
        "versionId": "1",
        "lastUpdated": "2023-04-19T10:02:51.774+00:00",
        "source": "#TDGEn5eKX7HXx5Jb"
      },
      "code": {
        "coding": [ {
          "system": "http://foo",
          "code": "12345"
        } ]
      },
      "subject": {
        "reference": "Patient/597392"
      },
      "effectiveDateTime": "2023-04-19T09:34:50+01:00",
      "valueQuantity": {
        "value": 123,
        "unit": "kg",
        "system": "http://bar",
        "code": "kg"
      }
    },
    "search": {
      "mode": "include"
    }
  }, {
    "fullUrl": "https://hapi.fhir.org/baseR4/Observation/10312051",
    "resource": {
      "resourceType": "Observation",
      "id": "10312051",
      "meta": {
        "versionId": "1",
        "lastUpdated": "2023-04-19T10:02:51.747+00:00",
        "source": "#NUalosmCcunzb7aU"
      },
      "code": {
        "coding": [ {
          "system": "http://foo",
          "code": "12345"
        } ]
      },
      "subject": {
        "reference": "Patient/597395"
      },
      "effectiveDateTime": "2023-04-19T09:34:50+01:00",
      "valueQuantity": {
        "value": 123,
        "unit": "kg",
        "system": "http://bar",
        "code": "kg"
      }
    },
    "search": {
      "mode": "include"
    }
  }, {
    "fullUrl": "https://hapi.fhir.org/baseR4/Observation/10317166",
    "resource": {
      "resourceType": "Observation",
      "id": "10317166",
      "meta": {
        "versionId": "1",
        "lastUpdated": "2023-04-19T10:05:39.250+00:00",
        "source": "#G7D7v24GavyqGaDb"
      },
      "code": {
        "coding": [ {
          "system": "http://foo",
          "code": "12345"
        } ]
      },
      "subject": {
        "reference": "Patient/597378"
      },
      "effectiveDateTime": "2023-04-19T09:34:50+01:00",
      "valueQuantity": {
        "value": 123,
        "unit": "kg",
        "system": "http://bar",
        "code": "kg"
      }
    },
    "search": {
      "mode": "include"
    }
  }, {
    "fullUrl": "https://hapi.fhir.org/baseR4/Observation/10312048",
    "resource": {
      "resourceType": "Observation",
      "id": "10312048",
      "meta": {
        "versionId": "1",
        "lastUpdated": "2023-04-19T10:02:51.706+00:00",
        "source": "#Pt60pwWj5tPPkiOT"
      },
      "code": {
        "coding": [ {
          "system": "http://foo",
          "code": "12345"
        } ]
      },
      "subject": {
        "reference": "Patient/597394"
      },
      "effectiveDateTime": "2023-04-19T09:34:50+01:00",
      "valueQuantity": {
        "value": 123,
        "unit": "kg",
        "system": "http://bar",
        "code": "kg"
      }
    },
    "search": {
      "mode": "include"
    }
  }, {
    "fullUrl": "https://hapi.fhir.org/baseR4/Observation/10317161",
    "resource": {
      "resourceType": "Observation",
      "id": "10317161",
      "meta": {
        "versionId": "1",
        "lastUpdated": "2023-04-19T10:05:39.118+00:00",
        "source": "#WxfXqF9lhl7qEYqB"
      },
      "code": {
        "coding": [ {
          "system": "http://foo",
          "code": "12345"
        } ]
      },
      "subject": {
        "reference": "Patient/597376"
      },
      "effectiveDateTime": "2023-04-19T09:34:50+01:00",
      "valueQuantity": {
        "value": 123,
        "unit": "kg",
        "system": "http://bar",
        "code": "kg"
      }
    },
    "search": {
      "mode": "include"
    }
  }, {
    "fullUrl": "https://hapi.fhir.org/baseR4/Observation/10317164",
    "resource": {
      "resourceType": "Observation",
      "id": "10317164",
      "meta": {
        "versionId": "1",
        "lastUpdated": "2023-04-19T10:05:39.173+00:00",
        "source": "#8kFykYvcfoWHXt5p"
      },
      "code": {
        "coding": [ {
          "system": "http://foo",
          "code": "12345"
        } ]
      },
      "subject": {
        "reference": "Patient/597377"
      },
      "effectiveDateTime": "2023-04-19T09:34:50+01:00",
      "valueQuantity": {
        "value": 123,
        "unit": "kg",
        "system": "http://bar",
        "code": "kg"
      }
    },
    "search": {
      "mode": "include"
    }
  }, {
    "fullUrl": "https://hapi.fhir.org/baseR4/Observation/10317163",
    "resource": {
      "resourceType": "Observation",
      "id": "10317163",
      "meta": {
        "versionId": "1",
        "lastUpdated": "2023-04-19T10:05:39.175+00:00",
        "source": "#WoMVEkvpzKit34SE"
      },
      "code": {
        "coding": [ {
          "system": "http://foo",
          "code": "12345"
        } ]
      },
      "subject": {
        "reference": "Patient/597375"
      },
      "effectiveDateTime": "2023-04-19T09:34:50+01:00",
      "valueQuantity": {
        "value": 123,
        "unit": "kg",
        "system": "http://bar",
        "code": "kg"
      }
    },
    "search": {
      "mode": "include"
    }
  }, {
    "fullUrl": "https://hapi.fhir.org/baseR4/Observation/10316645",
    "resource": {
      "resourceType": "Observation",
      "id": "10316645",
      "meta": {
        "versionId": "1",
        "lastUpdated": "2023-04-19T10:05:22.454+00:00",
        "source": "#dLv5SAXK0S0z9ZLb"
      },
      "code": {
        "coding": [ {
          "system": "http://foo",
          "code": "12345"
        } ]
      },
      "subject": {
        "reference": "Patient/597406"
      },
      "effectiveDateTime": "2023-04-19T09:34:50+01:00",
      "valueQuantity": {
        "value": 123,
        "unit": "kg",
        "system": "http://bar",
        "code": "kg"
      }
    },
    "search": {
      "mode": "include"
    }
  }, {
    "fullUrl": "https://hapi.fhir.org/baseR4/Observation/10311582",
    "resource": {
      "resourceType": "Observation",
      "id": "10311582",
      "meta": {
        "versionId": "1",
        "lastUpdated": "2023-04-19T10:02:35.105+00:00",
        "source": "#GshgGDWSGUaqjcB2"
      },
      "code": {
        "coding": [ {
          "system": "http://foo",
          "code": "12345"
        } ]
      },
      "subject": {
        "reference": "Patient/597447"
      },
      "effectiveDateTime": "2023-04-19T09:34:50+01:00",
      "valueQuantity": {
        "value": 123,
        "unit": "kg",
        "system": "http://bar",
        "code": "kg"
      }
    },
    "search": {
      "mode": "include"
    }
  }, {
    "fullUrl": "https://hapi.fhir.org/baseR4/Observation/10311579",
    "resource": {
      "resourceType": "Observation",
      "id": "10311579",
      "meta": {
        "versionId": "1",
        "lastUpdated": "2023-04-19T10:02:34.955+00:00",
        "source": "#ZQ6lXxGcZhSP1D4m"
      },
      "code": {
        "coding": [ {
          "system": "http://foo",
          "code": "12345"
        } ]
      },
      "subject": {
        "reference": "Patient/597446"
      },
      "effectiveDateTime": "2023-04-19T09:34:50+01:00",
      "valueQuantity": {
        "value": 123,
        "unit": "kg",
        "system": "http://bar",
        "code": "kg"
      }
    },
    "search": {
      "mode": "include"
    }
  }, {
    "fullUrl": "https://hapi.fhir.org/baseR4/Observation/10311566",
    "resource": {
      "resourceType": "Observation",
      "id": "10311566",
      "meta": {
        "versionId": "1",
        "lastUpdated": "2023-04-19T10:02:34.462+00:00",
        "source": "#6fGmj5MfkJC0pmSj"
      },
      "code": {
        "coding": [ {
          "system": "http://foo",
          "code": "12345"
        } ]
      },
      "subject": {
        "reference": "Patient/597430"
      },
      "effectiveDateTime": "2023-04-19T09:34:50+01:00",
      "valueQuantity": {
        "value": 123,
        "unit": "kg",
        "system": "http://bar",
        "code": "kg"
      }
    },
    "search": {
      "mode": "include"
    }
  }, {
    "fullUrl": "https://hapi.fhir.org/baseR4/Observation/10311565",
    "resource": {
      "resourceType": "Observation",
      "id": "10311565",
      "meta": {
        "versionId": "1",
        "lastUpdated": "2023-04-19T10:02:34.447+00:00",
        "source": "#Gzqb7CdZHAddNRMN"
      },
      "code": {
        "coding": [ {
          "system": "http://foo",
          "code": "12345"
        } ]
      },
      "subject": {
        "reference": "Patient/597431"
      },
      "effectiveDateTime": "2023-04-19T09:34:50+01:00",
      "valueQuantity": {
        "value": 123,
        "unit": "kg",
        "system": "http://bar",
        "code": "kg"
      }
    },
    "search": {
      "mode": "include"
    }
  }, {
    "fullUrl": "https://hapi.fhir.org/baseR4/Observation/10317193",
    "resource": {
      "resourceType": "Observation",
      "id": "10317193",
      "meta": {
        "versionId": "1",
        "lastUpdated": "2023-04-19T10:05:39.967+00:00",
        "source": "#n4qrVtbqxYMDLdYZ"
      },
      "code": {
        "coding": [ {
          "system": "http://foo",
          "code": "12345"
        } ]
      },
      "subject": {
        "reference": "Patient/597380"
      },
      "effectiveDateTime": "2023-04-19T09:34:50+01:00",
      "valueQuantity": {
        "value": 123,
        "unit": "kg",
        "system": "http://bar",
        "code": "kg"
      }
    },
    "search": {
      "mode": "include"
    }
  }, {
    "fullUrl": "https://hapi.fhir.org/baseR4/Observation/10311561",
    "resource": {
      "resourceType": "Observation",
      "id": "10311561",
      "meta": {
        "versionId": "1",
        "lastUpdated": "2023-04-19T10:02:34.371+00:00",
        "source": "#WKO7AOs9g5gdE4go"
      },
      "code": {
        "coding": [ {
          "system": "http://foo",
          "code": "12345"
        } ]
      },
      "subject": {
        "reference": "Patient/597439"
      },
      "effectiveDateTime": "2023-04-19T09:34:50+01:00",
      "valueQuantity": {
        "value": 123,
        "unit": "kg",
        "system": "http://bar",
        "code": "kg"
      }
    },
    "search": {
      "mode": "include"
    }
  }, {
    "fullUrl": "https://hapi.fhir.org/baseR4/Procedure/1680656",
    "resource": {
      "resourceType": "Procedure",
      "id": "1680656",
      "meta": {
        "versionId": "1",
        "lastUpdated": "2020-11-19T19:34:24.972+00:00",
        "source": "#lBJU6n1uF0VETesQ"
      },
      "text": {
        "status": "generated",
        "div": "<div xmlns=\"http://www.w3.org/1999/xhtml\">Routine Appendectomy</div>"
      },
      "status": "completed",
      "code": {
        "coding": [ {
          "system": "http://snomed.info/sct",
          "code": "80146002",
          "display": "Appendectomy (Procedure)"
        } ],
        "text": "Appendectomy"
      },
      "subject": {
        "reference": "Patient/597430"
      },
      "performedDateTime": "2013-04-05",
      "recorder": {
        "reference": "Practitioner/example",
        "display": "Dr Cecil Surgeon"
      },
      "asserter": {
        "reference": "Practitioner/example",
        "display": "Dr Cecil Surgeon"
      },
      "performer": [ {
        "actor": {
          "reference": "Practitioner/example",
          "display": "Dr Cecil Surgeon"
        }
      } ],
      "reasonCode": [ {
        "text": "Generalized abdominal pain 24 hours. Localized in RIF with rebound and guarding"
      } ],
      "followUp": [ {
        "text": "ROS 5 days  - 2013-04-10"
      } ],
      "note": [ {
        "text": "Routine Appendectomy. Appendix was inflamed and in retro-caecal position"
      } ]
    },
    "search": {
      "mode": "include"
    }
  }, {
    "fullUrl": "https://hapi.fhir.org/baseR4/Observation/10311563",
    "resource": {
      "resourceType": "Observation",
      "id": "10311563",
      "meta": {
        "versionId": "1",
        "lastUpdated": "2023-04-19T10:02:34.409+00:00",
        "source": "#WA2QNL1eZKdsgEfX"
      },
      "code": {
        "coding": [ {
          "system": "http://foo",
          "code": "12345"
        } ]
      },
      "subject": {
        "reference": "Patient/597438"
      },
      "effectiveDateTime": "2023-04-19T09:34:50+01:00",
      "valueQuantity": {
        "value": 123,
        "unit": "kg",
        "system": "http://bar",
        "code": "kg"
      }
    },
    "search": {
      "mode": "include"
    }
  }, {
    "fullUrl": "https://hapi.fhir.org/baseR4/Observation/10317190",
    "resource": {
      "resourceType": "Observation",
      "id": "10317190",
      "meta": {
        "versionId": "1",
        "lastUpdated": "2023-04-19T10:05:39.843+00:00",
        "source": "#8BpbRg6gtPxD3dfU"
      },
      "code": {
        "coding": [ {
          "system": "http://foo",
          "code": "12345"
        } ]
      },
      "subject": {
        "reference": "Patient/597381"
      },
      "effectiveDateTime": "2023-04-19T09:34:50+01:00",
      "valueQuantity": {
        "value": 123,
        "unit": "kg",
        "system": "http://bar",
        "code": "kg"
      }
    },
    "search": {
      "mode": "include"
    }
  }, {
    "fullUrl": "https://hapi.fhir.org/baseR4/Observation/10317192",
    "resource": {
      "resourceType": "Observation",
      "id": "10317192",
      "meta": {
        "versionId": "1",
        "lastUpdated": "2023-04-19T10:05:39.945+00:00",
        "source": "#hmoZITOQqrA0nuaX"
      },
      "code": {
        "coding": [ {
          "system": "http://foo",
          "code": "12345"
        } ]
      },
      "subject": {
        "reference": "Patient/597385"
      },
      "effectiveDateTime": "2023-04-19T09:34:50+01:00",
      "valueQuantity": {
        "value": 123,
        "unit": "kg",
        "system": "http://bar",
        "code": "kg"
      }
    },
    "search": {
      "mode": "include"
    }
  }, {
    "fullUrl": "https://hapi.fhir.org/baseR4/Observation/10317191",
    "resource": {
      "resourceType": "Observation",
      "id": "10317191",
      "meta": {
        "versionId": "1",
        "lastUpdated": "2023-04-19T10:05:39.901+00:00",
        "source": "#AuGtcS7Nc8K7tFZK"
      },
      "code": {
        "coding": [ {
          "system": "http://foo",
          "code": "12345"
        } ]
      },
      "subject": {
        "reference": "Patient/597384"
      },
      "effectiveDateTime": "2023-04-19T09:34:50+01:00",
      "valueQuantity": {
        "value": 123,
        "unit": "kg",
        "system": "http://bar",
        "code": "kg"
      }
    },
    "search": {
      "mode": "include"
    }
  }, {
    "fullUrl": "https://hapi.fhir.org/baseR4/Observation/10317186",
    "resource": {
      "resourceType": "Observation",
      "id": "10317186",
      "meta": {
        "versionId": "1",
        "lastUpdated": "2023-04-19T10:05:39.788+00:00",
        "source": "#dPC9Ty8WiBEb0f0y"
      },
      "code": {
        "coding": [ {
          "system": "http://foo",
          "code": "12345"
        } ]
      },
      "subject": {
        "reference": "Patient/597382"
      },
      "effectiveDateTime": "2023-04-19T09:34:50+01:00",
      "valueQuantity": {
        "value": 123,
        "unit": "kg",
        "system": "http://bar",
        "code": "kg"
      }
    },
    "search": {
      "mode": "include"
    }
  }, {
    "fullUrl": "https://hapi.fhir.org/baseR4/Observation/10317185",
    "resource": {
      "resourceType": "Observation",
      "id": "10317185",
      "meta": {
        "versionId": "1",
        "lastUpdated": "2023-04-19T10:05:39.729+00:00",
        "source": "#qC7R6OnNvemXBQT0"
      },
      "code": {
        "coding": [ {
          "system": "http://foo",
          "code": "12345"
        } ]
      },
      "subject": {
        "reference": "Patient/597389"
      },
      "effectiveDateTime": "2023-04-19T09:34:50+01:00",
      "valueQuantity": {
        "value": 123,
        "unit": "kg",
        "system": "http://bar",
        "code": "kg"
      }
    },
    "search": {
      "mode": "include"
    }
  }, {
    "fullUrl": "https://hapi.fhir.org/baseR4/Observation/10317188",
    "resource": {
      "resourceType": "Observation",
      "id": "10317188",
      "meta": {
        "versionId": "1",
        "lastUpdated": "2023-04-19T10:05:39.830+00:00",
        "source": "#UStUDuStIoyalGzi"
      },
      "code": {
        "coding": [ {
          "system": "http://foo",
          "code": "12345"
        } ]
      },
      "subject": {
        "reference": "Patient/597383"
      },
      "effectiveDateTime": "2023-04-19T09:34:50+01:00",
      "valueQuantity": {
        "value": 123,
        "unit": "kg",
        "system": "http://bar",
        "code": "kg"
      }
    },
    "search": {
      "mode": "include"
    }
  }, {
    "fullUrl": "https://hapi.fhir.org/baseR4/Observation/10317187",
    "resource": {
      "resourceType": "Observation",
      "id": "10317187",
      "meta": {
        "versionId": "1",
        "lastUpdated": "2023-04-19T10:05:39.809+00:00",
        "source": "#8wx1G0CIOXjQJUht"
      },
      "code": {
        "coding": [ {
          "system": "http://foo",
          "code": "12345"
        } ]
      },
      "subject": {
        "reference": "Patient/597388"
      },
      "effectiveDateTime": "2023-04-19T09:34:50+01:00",
      "valueQuantity": {
        "value": 123,
        "unit": "kg",
        "system": "http://bar",
        "code": "kg"
      }
    },
    "search": {
      "mode": "include"
    }
  }, {
    "fullUrl": "https://hapi.fhir.org/baseR4/Observation/10312125",
    "resource": {
      "resourceType": "Observation",
      "id": "10312125",
      "meta": {
        "versionId": "1",
        "lastUpdated": "2023-04-19T10:02:54.033+00:00",
        "source": "#fsd6JWFTF7Q1pfDS"
      },
      "code": {
        "coding": [ {
          "system": "http://foo",
          "code": "12345"
        } ]
      },
      "subject": {
        "reference": "Patient/597352"
      },
      "effectiveDateTime": "2023-04-19T09:34:50+01:00",
      "valueQuantity": {
        "value": 123,
        "unit": "kg",
        "system": "http://bar",
        "code": "kg"
      }
    },
    "search": {
      "mode": "include"
    }
  }, {
    "fullUrl": "https://hapi.fhir.org/baseR4/Observation/10312117",
    "resource": {
      "resourceType": "Observation",
      "id": "10312117",
      "meta": {
        "versionId": "1",
        "lastUpdated": "2023-04-19T10:02:53.871+00:00",
        "source": "#SLywjOhwcxmkdQ12"
      },
      "code": {
        "coding": [ {
          "system": "http://foo",
          "code": "12345"
        } ]
      },
      "subject": {
        "reference": "Patient/597359"
      },
      "effectiveDateTime": "2023-04-19T09:34:50+01:00",
      "valueQuantity": {
        "value": 123,
        "unit": "kg",
        "system": "http://bar",
        "code": "kg"
      }
    },
    "search": {
      "mode": "include"
    }
  }, {
    "fullUrl": "https://hapi.fhir.org/baseR4/Observation/10311600",
    "resource": {
      "resourceType": "Observation",
      "id": "10311600",
      "meta": {
        "versionId": "1",
        "lastUpdated": "2023-04-19T10:02:36.034+00:00",
        "source": "#mshgqPtcQiwXRzfr"
      },
      "code": {
        "coding": [ {
          "system": "http://foo",
          "code": "12345"
        } ]
      },
      "subject": {
        "reference": "Patient/597459"
      },
      "effectiveDateTime": "2023-04-19T09:34:50+01:00",
      "valueQuantity": {
        "value": 123,
        "unit": "kg",
        "system": "http://bar",
        "code": "kg"
      }
    },
    "search": {
      "mode": "include"
    }
  }, {
    "fullUrl": "https://hapi.fhir.org/baseR4/Observation/10311593",
    "resource": {
      "resourceType": "Observation",
      "id": "10311593",
      "meta": {
        "versionId": "1",
        "lastUpdated": "2023-04-19T10:02:35.937+00:00",
        "source": "#QOditxHokz1Gq15g"
      },
      "code": {
        "coding": [ {
          "system": "http://foo",
          "code": "12345"
        } ]
      },
      "subject": {
        "reference": "Patient/597458"
      },
      "effectiveDateTime": "2023-04-19T09:34:50+01:00",
      "valueQuantity": {
        "value": 123,
        "unit": "kg",
        "system": "http://bar",
        "code": "kg"
      }
    },
    "search": {
      "mode": "include"
    }
  }, {
    "fullUrl": "https://hapi.fhir.org/baseR4/Observation/10316710",
    "resource": {
      "resourceType": "Observation",
      "id": "10316710",
      "meta": {
        "versionId": "1",
        "lastUpdated": "2023-04-19T10:05:24.444+00:00",
        "source": "#VLT3SqcRmG8hus9X"
      },
      "code": {
        "coding": [ {
          "system": "http://foo",
          "code": "12345"
        } ]
      },
      "subject": {
        "reference": "Patient/597422"
      },
      "effectiveDateTime": "2023-04-19T09:34:50+01:00",
      "valueQuantity": {
        "value": 123,
        "unit": "kg",
        "system": "http://bar",
        "code": "kg"
      }
    },
    "search": {
      "mode": "include"
    }
  }, {
    "fullUrl": "https://hapi.fhir.org/baseR4/Observation/10316706",
    "resource": {
      "resourceType": "Observation",
      "id": "10316706",
      "meta": {
        "versionId": "1",
        "lastUpdated": "2023-04-19T10:05:24.261+00:00",
        "source": "#SPSKljCmne6SCE3y"
      },
      "code": {
        "coding": [ {
          "system": "http://foo",
          "code": "12345"
        } ]
      },
      "subject": {
        "reference": "Patient/597423"
      },
      "effectiveDateTime": "2023-04-19T09:34:50+01:00",
      "valueQuantity": {
        "value": 123,
        "unit": "kg",
        "system": "http://bar",
        "code": "kg"
      }
    },
    "search": {
      "mode": "include"
    }
  }, {
    "fullUrl": "https://hapi.fhir.org/baseR4/Observation/10311641",
    "resource": {
      "resourceType": "Observation",
      "id": "10311641",
      "meta": {
        "versionId": "1",
        "lastUpdated": "2023-04-19T10:02:37.411+00:00",
        "source": "#GJa6ypz7OomN1KJ9"
      },
      "code": {
        "coding": [ {
          "system": "http://foo",
          "code": "12345"
        } ]
      },
      "subject": {
        "reference": "Patient/597407"
      },
      "effectiveDateTime": "2023-04-19T09:34:50+01:00",
      "valueQuantity": {
        "value": 123,
        "unit": "kg",
        "system": "http://bar",
        "code": "kg"
      }
    },
    "search": {
      "mode": "include"
    }
  }, {
    "fullUrl": "https://hapi.fhir.org/baseR4/Observation/10311644",
    "resource": {
      "resourceType": "Observation",
      "id": "10311644",
      "meta": {
        "versionId": "1",
        "lastUpdated": "2023-04-19T10:02:37.472+00:00",
        "source": "#8omWev93O1VP4dcm"
      },
      "code": {
        "coding": [ {
          "system": "http://foo",
          "code": "12345"
        } ]
      },
      "subject": {
        "reference": "Patient/597406"
      },
      "effectiveDateTime": "2023-04-19T09:34:50+01:00",
      "valueQuantity": {
        "value": 123,
        "unit": "kg",
        "system": "http://bar",
        "code": "kg"
      }
    },
    "search": {
      "mode": "include"
    }
  }, {
    "fullUrl": "https://hapi.fhir.org/baseR4/Observation/10312150",
    "resource": {
      "resourceType": "Observation",
      "id": "10312150",
      "meta": {
        "versionId": "1",
        "lastUpdated": "2023-04-19T10:02:55.352+00:00",
        "source": "#hot72SrpL4Nmih26"
      },
      "code": {
        "coding": [ {
          "system": "http://foo",
          "code": "12345"
        } ]
      },
      "subject": {
        "reference": "Patient/597367"
      },
      "effectiveDateTime": "2023-04-19T09:34:50+01:00",
      "valueQuantity": {
        "value": 123,
        "unit": "kg",
        "system": "http://bar",
        "code": "kg"
      }
    },
    "search": {
      "mode": "include"
    }
  }, {
    "fullUrl": "https://hapi.fhir.org/baseR4/Observation/10312146",
    "resource": {
      "resourceType": "Observation",
      "id": "10312146",
      "meta": {
        "versionId": "1",
        "lastUpdated": "2023-04-19T10:02:55.305+00:00",
        "source": "#qFmDej2XyIefo3DC"
      },
      "code": {
        "coding": [ {
          "system": "http://foo",
          "code": "12345"
        } ]
      },
      "subject": {
        "reference": "Patient/597362"
      },
      "effectiveDateTime": "2023-04-19T09:34:50+01:00",
      "valueQuantity": {
        "value": 123,
        "unit": "kg",
        "system": "http://bar",
        "code": "kg"
      }
    },
    "search": {
      "mode": "include"
    }
  }, {
    "fullUrl": "https://hapi.fhir.org/baseR4/Observation/10312145",
    "resource": {
      "resourceType": "Observation",
      "id": "10312145",
      "meta": {
        "versionId": "1",
        "lastUpdated": "2023-04-19T10:02:55.310+00:00",
        "source": "#Ug9H1y3uXMhRjOg0"
      },
      "code": {
        "coding": [ {
          "system": "http://foo",
          "code": "12345"
        } ]
      },
      "subject": {
        "reference": "Patient/597368"
      },
      "effectiveDateTime": "2023-04-19T09:34:50+01:00",
      "valueQuantity": {
        "value": 123,
        "unit": "kg",
        "system": "http://bar",
        "code": "kg"
      }
    },
    "search": {
      "mode": "include"
    }
  }, {
    "fullUrl": "https://hapi.fhir.org/baseR4/Observation/10312147",
    "resource": {
      "resourceType": "Observation",
      "id": "10312147",
      "meta": {
        "versionId": "1",
        "lastUpdated": "2023-04-19T10:02:55.304+00:00",
        "source": "#1WSmc7ak4smbwClv"
      },
      "code": {
        "coding": [ {
          "system": "http://foo",
          "code": "12345"
        } ]
      },
      "subject": {
        "reference": "Patient/597365"
      },
      "effectiveDateTime": "2023-04-19T09:34:50+01:00",
      "valueQuantity": {
        "value": 123,
        "unit": "kg",
        "system": "http://bar",
        "code": "kg"
      }
    },
    "search": {
      "mode": "include"
    }
  }, {
    "fullUrl": "https://hapi.fhir.org/baseR4/Observation/10312142",
    "resource": {
      "resourceType": "Observation",
      "id": "10312142",
      "meta": {
        "versionId": "1",
        "lastUpdated": "2023-04-19T10:02:55.306+00:00",
        "source": "#4dDP4mkW4XnslEz7"
      },
      "code": {
        "coding": [ {
          "system": "http://foo",
          "code": "12345"
        } ]
      },
      "subject": {
        "reference": "Patient/597366"
      },
      "effectiveDateTime": "2023-04-19T09:34:50+01:00",
      "valueQuantity": {
        "value": 123,
        "unit": "kg",
        "system": "http://bar",
        "code": "kg"
      }
    },
    "search": {
      "mode": "include"
    }
  }, {
    "fullUrl": "https://hapi.fhir.org/baseR4/Observation/10312141",
    "resource": {
      "resourceType": "Observation",
      "id": "10312141",
      "meta": {
        "versionId": "1",
        "lastUpdated": "2023-04-19T10:02:55.300+00:00",
        "source": "#0ectysMG4t95y3xy"
      },
      "code": {
        "coding": [ {
          "system": "http://foo",
          "code": "12345"
        } ]
      },
      "subject": {
        "reference": "Patient/597364"
      },
      "effectiveDateTime": "2023-04-19T09:34:50+01:00",
      "valueQuantity": {
        "value": 123,
        "unit": "kg",
        "system": "http://bar",
        "code": "kg"
      }
    },
    "search": {
      "mode": "include"
    }
  }, {
    "fullUrl": "https://hapi.fhir.org/baseR4/Observation/10312140",
    "resource": {
      "resourceType": "Observation",
      "id": "10312140",
      "meta": {
        "versionId": "1",
        "lastUpdated": "2023-04-19T10:02:55.048+00:00",
        "source": "#33yRxljiFBNSSKyY"
      },
      "code": {
        "coding": [ {
          "system": "http://foo",
          "code": "12345"
        } ]
      },
      "subject": {
        "reference": "Patient/597369"
      },
      "effectiveDateTime": "2023-04-19T09:34:50+01:00",
      "valueQuantity": {
        "value": 123,
        "unit": "kg",
        "system": "http://bar",
        "code": "kg"
      }
    },
    "search": {
      "mode": "include"
    }
  }, {
    "fullUrl": "https://hapi.fhir.org/baseR4/Observation/10311621",
    "resource": {
      "resourceType": "Observation",
      "id": "10311621",
      "meta": {
        "versionId": "1",
        "lastUpdated": "2023-04-19T10:02:36.632+00:00",
        "source": "#NMlxZx4nHs3yrEQR"
      },
      "code": {
        "coding": [ {
          "system": "http://foo",
          "code": "12345"
        } ]
      },
      "subject": {
        "reference": "Patient/597460"
      },
      "effectiveDateTime": "2023-04-19T09:34:50+01:00",
      "valueQuantity": {
        "value": 123,
        "unit": "kg",
        "system": "http://bar",
        "code": "kg"
      }
    },
    "search": {
      "mode": "include"
    }
  }, {
    "fullUrl": "https://hapi.fhir.org/baseR4/Observation/10311624",
    "resource": {
      "resourceType": "Observation",
      "id": "10311624",
      "meta": {
        "versionId": "1",
        "lastUpdated": "2023-04-19T10:02:36.767+00:00",
        "source": "#IBOnbrAiOEpOEY5R"
      },
      "code": {
        "coding": [ {
          "system": "http://foo",
          "code": "12345"
        } ]
      },
      "subject": {
        "reference": "Patient/597462"
      },
      "effectiveDateTime": "2023-04-19T09:34:50+01:00",
      "valueQuantity": {
        "value": 123,
        "unit": "kg",
        "system": "http://bar",
        "code": "kg"
      }
    },
    "search": {
      "mode": "include"
    }
  }, {
    "fullUrl": "https://hapi.fhir.org/baseR4/Observation/10311623",
    "resource": {
      "resourceType": "Observation",
      "id": "10311623",
      "meta": {
        "versionId": "1",
        "lastUpdated": "2023-04-19T10:02:36.763+00:00",
        "source": "#qEQPqVKdjFUszrza"
      },
      "code": {
        "coding": [ {
          "system": "http://foo",
          "code": "12345"
        } ]
      },
      "subject": {
        "reference": "Patient/597461"
      },
      "effectiveDateTime": "2023-04-19T09:34:50+01:00",
      "valueQuantity": {
        "value": 123,
        "unit": "kg",
        "system": "http://bar",
        "code": "kg"
      }
    },
    "search": {
      "mode": "include"
    }
  }, {
    "fullUrl": "https://hapi.fhir.org/baseR4/Observation/10322174",
    "resource": {
      "resourceType": "Observation",
      "id": "10322174",
      "meta": {
        "versionId": "1",
        "lastUpdated": "2023-04-19T10:08:14.537+00:00",
        "source": "#tuxCZwzgjA0WGPVm"
      },
      "code": {
        "coding": [ {
          "system": "http://foo",
          "code": "12345"
        } ]
      },
      "subject": {
        "reference": "Patient/597370"
      },
      "effectiveDateTime": "2023-04-19T09:34:50+01:00",
      "valueQuantity": {
        "value": 123,
        "unit": "kg",
        "system": "http://bar",
        "code": "kg"
      }
    },
    "search": {
      "mode": "include"
    }
  }, {
    "fullUrl": "https://hapi.fhir.org/baseR4/Observation/10317054",
    "resource": {
      "resourceType": "Observation",
      "id": "10317054",
      "meta": {
        "versionId": "1",
        "lastUpdated": "2023-04-19T10:05:35.612+00:00",
        "source": "#WKUFRcHRXfUrOUFX"
      },
      "code": {
        "coding": [ {
          "system": "http://foo",
          "code": "12345"
        } ]
      },
      "subject": {
        "reference": "Patient/597390"
      },
      "effectiveDateTime": "2023-04-19T09:34:50+01:00",
      "valueQuantity": {
        "value": 123,
        "unit": "kg",
        "system": "http://bar",
        "code": "kg"
      }
    },
    "search": {
      "mode": "include"
    }
  }, {
    "fullUrl": "https://hapi.fhir.org/baseR4/Observation/10322173",
    "resource": {
      "resourceType": "Observation",
      "id": "10322173",
      "meta": {
        "versionId": "1",
        "lastUpdated": "2023-04-19T10:08:14.514+00:00",
        "source": "#goAiD0akfHqtyOJ7"
      },
      "code": {
        "coding": [ {
          "system": "http://foo",
          "code": "12345"
        } ]
      },
      "subject": {
        "reference": "Patient/597373"
      },
      "effectiveDateTime": "2023-04-19T09:34:50+01:00",
      "valueQuantity": {
        "value": 123,
        "unit": "kg",
        "system": "http://bar",
        "code": "kg"
      }
    },
    "search": {
      "mode": "include"
    }
  }, {
    "fullUrl": "https://hapi.fhir.org/baseR4/Observation/10322175",
    "resource": {
      "resourceType": "Observation",
      "id": "10322175",
      "meta": {
        "versionId": "1",
        "lastUpdated": "2023-04-19T10:08:14.555+00:00",
        "source": "#MCMWK59utCrREgFh"
      },
      "code": {
        "coding": [ {
          "system": "http://foo",
          "code": "12345"
        } ]
      },
      "subject": {
        "reference": "Patient/597387"
      },
      "effectiveDateTime": "2023-04-19T09:34:50+01:00",
      "valueQuantity": {
        "value": 123,
        "unit": "kg",
        "system": "http://bar",
        "code": "kg"
      }
    },
    "search": {
      "mode": "include"
    }
  }, {
    "fullUrl": "https://hapi.fhir.org/baseR4/Observation/10317055",
    "resource": {
      "resourceType": "Observation",
      "id": "10317055",
      "meta": {
        "versionId": "1",
        "lastUpdated": "2023-04-19T10:05:35.634+00:00",
        "source": "#bp6mIFIewtmwKhZv"
      },
      "code": {
        "coding": [ {
          "system": "http://foo",
          "code": "12345"
        } ]
      },
      "subject": {
        "reference": "Patient/597392"
      },
      "effectiveDateTime": "2023-04-19T09:34:50+01:00",
      "valueQuantity": {
        "value": 123,
        "unit": "kg",
        "system": "http://bar",
        "code": "kg"
      }
    },
    "search": {
      "mode": "include"
    }
  }, {
    "fullUrl": "https://hapi.fhir.org/baseR4/Observation/10322170",
    "resource": {
      "resourceType": "Observation",
      "id": "10322170",
      "meta": {
        "versionId": "1",
        "lastUpdated": "2023-04-19T10:08:14.461+00:00",
        "source": "#gVY1yj4OtW932Mo0"
      },
      "code": {
        "coding": [ {
          "system": "http://foo",
          "code": "12345"
        } ]
      },
      "subject": {
        "reference": "Patient/597374"
      },
      "effectiveDateTime": "2023-04-19T09:34:50+01:00",
      "valueQuantity": {
        "value": 123,
        "unit": "kg",
        "system": "http://bar",
        "code": "kg"
      }
    },
    "search": {
      "mode": "include"
    }
  }, {
    "fullUrl": "https://hapi.fhir.org/baseR4/Observation/10317050",
    "resource": {
      "resourceType": "Observation",
      "id": "10317050",
      "meta": {
        "versionId": "1",
        "lastUpdated": "2023-04-19T10:05:35.484+00:00",
        "source": "#P4ThLXHAvgMjX62Q"
      },
      "code": {
        "coding": [ {
          "system": "http://foo",
          "code": "12345"
        } ]
      },
      "subject": {
        "reference": "Patient/597393"
      },
      "effectiveDateTime": "2023-04-19T09:34:50+01:00",
      "valueQuantity": {
        "value": 123,
        "unit": "kg",
        "system": "http://bar",
        "code": "kg"
      }
    },
    "search": {
      "mode": "include"
    }
  }, {
    "fullUrl": "https://hapi.fhir.org/baseR4/Observation/10322169",
    "resource": {
      "resourceType": "Observation",
      "id": "10322169",
      "meta": {
        "versionId": "1",
        "lastUpdated": "2023-04-19T10:08:14.418+00:00",
        "source": "#HSLUyjq72RLjCk64"
      },
      "code": {
        "coding": [ {
          "system": "http://foo",
          "code": "12345"
        } ]
      },
      "subject": {
        "reference": "Patient/597371"
      },
      "effectiveDateTime": "2023-04-19T09:34:50+01:00",
      "valueQuantity": {
        "value": 123,
        "unit": "kg",
        "system": "http://bar",
        "code": "kg"
      }
    },
    "search": {
      "mode": "include"
    }
  }, {
    "fullUrl": "https://hapi.fhir.org/baseR4/Observation/10317052",
    "resource": {
      "resourceType": "Observation",
      "id": "10317052",
      "meta": {
        "versionId": "1",
        "lastUpdated": "2023-04-19T10:05:35.559+00:00",
        "source": "#InUJoGvXAhjDQq5d"
      },
      "code": {
        "coding": [ {
          "system": "http://foo",
          "code": "12345"
        } ]
      },
      "subject": {
        "reference": "Patient/597391"
      },
      "effectiveDateTime": "2023-04-19T09:34:50+01:00",
      "valueQuantity": {
        "value": 123,
        "unit": "kg",
        "system": "http://bar",
        "code": "kg"
      }
    },
    "search": {
      "mode": "include"
    }
  }, {
    "fullUrl": "https://hapi.fhir.org/baseR4/Observation/10321660",
    "resource": {
      "resourceType": "Observation",
      "id": "10321660",
      "meta": {
        "versionId": "1",
        "lastUpdated": "2023-04-19T10:07:58.839+00:00",
        "source": "#aMKQv4HHqLszdTfe"
      },
      "code": {
        "coding": [ {
          "system": "http://foo",
          "code": "12345"
        } ]
      },
      "subject": {
        "reference": "Patient/597415"
      },
      "effectiveDateTime": "2023-04-19T09:34:50+01:00",
      "valueQuantity": {
        "value": 123,
        "unit": "kg",
        "system": "http://bar",
        "code": "kg"
      }
    },
    "search": {
      "mode": "include"
    }
  }, {
    "fullUrl": "https://hapi.fhir.org/baseR4/Observation/10317046",
    "resource": {
      "resourceType": "Observation",
      "id": "10317046",
      "meta": {
        "versionId": "1",
        "lastUpdated": "2023-04-19T10:05:35.423+00:00",
        "source": "#kA2ZpuHC9btYyvV8"
      },
      "code": {
        "coding": [ {
          "system": "http://foo",
          "code": "12345"
        } ]
      },
      "subject": {
        "reference": "Patient/597395"
      },
      "effectiveDateTime": "2023-04-19T09:34:50+01:00",
      "valueQuantity": {
        "value": 123,
        "unit": "kg",
        "system": "http://bar",
        "code": "kg"
      }
    },
    "search": {
      "mode": "include"
    }
  }, {
    "fullUrl": "https://hapi.fhir.org/baseR4/Observation/10321653",
    "resource": {
      "resourceType": "Observation",
      "id": "10321653",
      "meta": {
        "versionId": "1",
        "lastUpdated": "2023-04-19T10:07:58.574+00:00",
        "source": "#57ld7a8FJLegneXR"
      },
      "code": {
        "coding": [ {
          "system": "http://foo",
          "code": "12345"
        } ]
      },
      "subject": {
        "reference": "Patient/597406"
      },
      "effectiveDateTime": "2023-04-19T09:34:50+01:00",
      "valueQuantity": {
        "value": 123,
        "unit": "kg",
        "system": "http://bar",
        "code": "kg"
      }
    },
    "search": {
      "mode": "include"
    }
  }, {
    "fullUrl": "https://hapi.fhir.org/baseR4/Observation/10317048",
    "resource": {
      "resourceType": "Observation",
      "id": "10317048",
      "meta": {
        "versionId": "1",
        "lastUpdated": "2023-04-19T10:05:35.464+00:00",
        "source": "#BYtQTmpCgTcpbBtZ"
      },
      "code": {
        "coding": [ {
          "system": "http://foo",
          "code": "12345"
        } ]
      },
      "subject": {
        "reference": "Patient/597394"
      },
      "effectiveDateTime": "2023-04-19T09:34:50+01:00",
      "valueQuantity": {
        "value": 123,
        "unit": "kg",
        "system": "http://bar",
        "code": "kg"
      }
    },
    "search": {
      "mode": "include"
    }
  }, {
    "fullUrl": "https://hapi.fhir.org/baseR4/Observation/10322164",
    "resource": {
      "resourceType": "Observation",
      "id": "10322164",
      "meta": {
        "versionId": "1",
        "lastUpdated": "2023-04-19T10:08:14.311+00:00",
        "source": "#UJzbox3etX716wqM"
      },
      "code": {
        "coding": [ {
          "system": "http://foo",
          "code": "12345"
        } ]
      },
      "subject": {
        "reference": "Patient/597376"
      },
      "effectiveDateTime": "2023-04-19T09:34:50+01:00",
      "valueQuantity": {
        "value": 123,
        "unit": "kg",
        "system": "http://bar",
        "code": "kg"
      }
    },
    "search": {
      "mode": "include"
    }
  }, {
    "fullUrl": "https://hapi.fhir.org/baseR4/Observation/10322163",
    "resource": {
      "resourceType": "Observation",
      "id": "10322163",
      "meta": {
        "versionId": "1",
        "lastUpdated": "2023-04-19T10:08:14.278+00:00",
        "source": "#3T4YlpgQSVj7QDWP"
      },
      "code": {
        "coding": [ {
          "system": "http://foo",
          "code": "12345"
        } ]
      },
      "subject": {
        "reference": "Patient/597378"
      },
      "effectiveDateTime": "2023-04-19T09:34:50+01:00",
      "valueQuantity": {
        "value": 123,
        "unit": "kg",
        "system": "http://bar",
        "code": "kg"
      }
    },
    "search": {
      "mode": "include"
    }
  }, {
    "fullUrl": "https://hapi.fhir.org/baseR4/Observation/10322158",
    "resource": {
      "resourceType": "Observation",
      "id": "10322158",
      "meta": {
        "versionId": "1",
        "lastUpdated": "2023-04-19T10:08:14.102+00:00",
        "source": "#1YIpLttHUw9i7eza"
      },
      "code": {
        "coding": [ {
          "system": "http://foo",
          "code": "12345"
        } ]
      },
      "subject": {
        "reference": "Patient/597375"
      },
      "effectiveDateTime": "2023-04-19T09:34:50+01:00",
      "valueQuantity": {
        "value": 123,
        "unit": "kg",
        "system": "http://bar",
        "code": "kg"
      }
    },
    "search": {
      "mode": "include"
    }
  }, {
    "fullUrl": "https://hapi.fhir.org/baseR4/Observation/10321646",
    "resource": {
      "resourceType": "Observation",
      "id": "10321646",
      "meta": {
        "versionId": "1",
        "lastUpdated": "2023-04-19T10:07:58.442+00:00",
        "source": "#OF7j6MacFytADVX2"
      },
      "code": {
        "coding": [ {
          "system": "http://foo",
          "code": "12345"
        } ]
      },
      "subject": {
        "reference": "Patient/597407"
      },
      "effectiveDateTime": "2023-04-19T09:34:50+01:00",
      "valueQuantity": {
        "value": 123,
        "unit": "kg",
        "system": "http://bar",
        "code": "kg"
      }
    },
    "search": {
      "mode": "include"
    }
  }, {
    "fullUrl": "https://hapi.fhir.org/baseR4/Observation/10322157",
    "resource": {
      "resourceType": "Observation",
      "id": "10322157",
      "meta": {
        "versionId": "1",
        "lastUpdated": "2023-04-19T10:08:14.101+00:00",
        "source": "#glfx8W5DZEcMkkdB"
      },
      "code": {
        "coding": [ {
          "system": "http://foo",
          "code": "12345"
        } ]
      },
      "subject": {
        "reference": "Patient/597377"
      },
      "effectiveDateTime": "2023-04-19T09:34:50+01:00",
      "valueQuantity": {
        "value": 123,
        "unit": "kg",
        "system": "http://bar",
        "code": "kg"
      }
    },
    "search": {
      "mode": "include"
    }
  }, {
    "fullUrl": "https://hapi.fhir.org/baseR4/Observation/10322145",
    "resource": {
      "resourceType": "Observation",
      "id": "10322145",
      "meta": {
        "versionId": "1",
        "lastUpdated": "2023-04-19T10:08:13.799+00:00",
        "source": "#VKi5o4SYsJvjE1wz"
      },
      "code": {
        "coding": [ {
          "system": "http://foo",
          "code": "12345"
        } ]
      },
      "subject": {
        "reference": "Patient/597364"
      },
      "effectiveDateTime": "2023-04-19T09:34:50+01:00",
      "valueQuantity": {
        "value": 123,
        "unit": "kg",
        "system": "http://bar",
        "code": "kg"
      }
    },
    "search": {
      "mode": "include"
    }
  }, {
    "fullUrl": "https://hapi.fhir.org/baseR4/Observation/10322148",
    "resource": {
      "resourceType": "Observation",
      "id": "10322148",
      "meta": {
        "versionId": "1",
        "lastUpdated": "2023-04-19T10:08:13.864+00:00",
        "source": "#6VUqL872FRWLeOr5"
      },
      "code": {
        "coding": [ {
          "system": "http://foo",
          "code": "12345"
        } ]
      },
      "subject": {
        "reference": "Patient/597362"
      },
      "effectiveDateTime": "2023-04-19T09:34:50+01:00",
      "valueQuantity": {
        "value": 123,
        "unit": "kg",
        "system": "http://bar",
        "code": "kg"
      }
    },
    "search": {
      "mode": "include"
    }
  }, {
    "fullUrl": "https://hapi.fhir.org/baseR4/Observation/10316566",
    "resource": {
      "resourceType": "Observation",
      "id": "10316566",
      "meta": {
        "versionId": "1",
        "lastUpdated": "2023-04-19T10:05:19.835+00:00",
        "source": "#ATXGaqELIZjDyj6m"
      },
      "code": {
        "coding": [ {
          "system": "http://foo",
          "code": "12345"
        } ]
      },
      "subject": {
        "reference": "Patient/597430"
      },
      "effectiveDateTime": "2023-04-19T09:34:50+01:00",
      "valueQuantity": {
        "value": 123,
        "unit": "kg",
        "system": "http://bar",
        "code": "kg"
      }
    },
    "search": {
      "mode": "include"
    }
  }, {
    "fullUrl": "https://hapi.fhir.org/baseR4/Observation/10316565",
    "resource": {
      "resourceType": "Observation",
      "id": "10316565",
      "meta": {
        "versionId": "1",
        "lastUpdated": "2023-04-19T10:05:19.772+00:00",
        "source": "#RJvZKyZv8Uu8nrkE"
      },
      "code": {
        "coding": [ {
          "system": "http://foo",
          "code": "12345"
        } ]
      },
      "subject": {
        "reference": "Patient/597431"
      },
      "effectiveDateTime": "2023-04-19T09:34:50+01:00",
      "valueQuantity": {
        "value": 123,
        "unit": "kg",
        "system": "http://bar",
        "code": "kg"
      }
    },
    "search": {
      "mode": "include"
    }
  }, {
    "fullUrl": "https://hapi.fhir.org/baseR4/Observation/10322193",
    "resource": {
      "resourceType": "Observation",
      "id": "10322193",
      "meta": {
        "versionId": "1",
        "lastUpdated": "2023-04-19T10:08:15.096+00:00",
        "source": "#9CFiCnDqyGg8f1JY"
      },
      "code": {
        "coding": [ {
          "system": "http://foo",
          "code": "12345"
        } ]
      },
      "subject": {
        "reference": "Patient/597381"
      },
      "effectiveDateTime": "2023-04-19T09:34:50+01:00",
      "valueQuantity": {
        "value": 123,
        "unit": "kg",
        "system": "http://bar",
        "code": "kg"
      }
    },
    "search": {
      "mode": "include"
    }
  }, {
    "fullUrl": "https://hapi.fhir.org/baseR4/Observation/10322195",
    "resource": {
      "resourceType": "Observation",
      "id": "10322195",
      "meta": {
        "versionId": "1",
        "lastUpdated": "2023-04-19T10:08:15.143+00:00",
        "source": "#s4OLejIiphnV0Yud"
      },
      "code": {
        "coding": [ {
          "system": "http://foo",
          "code": "12345"
        } ]
      },
      "subject": {
        "reference": "Patient/597380"
      },
      "effectiveDateTime": "2023-04-19T09:34:50+01:00",
      "valueQuantity": {
        "value": 123,
        "unit": "kg",
        "system": "http://bar",
        "code": "kg"
      }
    },
    "search": {
      "mode": "include"
    }
  }, {
    "fullUrl": "https://hapi.fhir.org/baseR4/Observation/10316563",
    "resource": {
      "resourceType": "Observation",
      "id": "10316563",
      "meta": {
        "versionId": "1",
        "lastUpdated": "2023-04-19T10:05:19.663+00:00",
        "source": "#diJXH3sxJaC1IQ3u"
      },
      "code": {
        "coding": [ {
          "system": "http://foo",
          "code": "12345"
        } ]
      },
      "subject": {
        "reference": "Patient/597438"
      },
      "effectiveDateTime": "2023-04-19T09:34:50+01:00",
      "valueQuantity": {
        "value": 123,
        "unit": "kg",
        "system": "http://bar",
        "code": "kg"
      }
    },
    "search": {
      "mode": "include"
    }
  }, {
    "fullUrl": "https://hapi.fhir.org/baseR4/Observation/10322190",
    "resource": {
      "resourceType": "Observation",
      "id": "10322190",
      "meta": {
        "versionId": "1",
        "lastUpdated": "2023-04-19T10:08:15.014+00:00",
        "source": "#0CzhN4JkeI0bVgUs"
      },
      "code": {
        "coding": [ {
          "system": "http://foo",
          "code": "12345"
        } ]
      },
      "subject": {
        "reference": "Patient/597384"
      },
      "effectiveDateTime": "2023-04-19T09:34:50+01:00",
      "valueQuantity": {
        "value": 123,
        "unit": "kg",
        "system": "http://bar",
        "code": "kg"
      }
    },
    "search": {
      "mode": "include"
    }
  }, {
    "fullUrl": "https://hapi.fhir.org/baseR4/Observation/597402",
    "resource": {
      "resourceType": "Observation",
      "id": "597402",
      "meta": {
        "versionId": "1",
        "lastUpdated": "2020-02-04T05:30:01.098+00:00",
        "source": "#KxIb0Zspro7i4iAI"
      },
      "status": "final",
      "code": {
        "text": "averageIap"
      },
      "subject": {
        "reference": "Patient/597395"
      },
      "effectivePeriod": {
        "start": "2020-02-04T05:30:00+00:00",
        "end": "2020-02-04T05:30:10+00:00"
      },
      "issued": "2020-02-04T05:30:01.077+00:00",
      "valueQuantity": {
        "value": 3.0,
        "unit": "mmHg"
      }
    },
    "search": {
      "mode": "include"
    }
  }, {
    "fullUrl": "https://hapi.fhir.org/baseR4/Observation/10322189",
    "resource": {
      "resourceType": "Observation",
      "id": "10322189",
      "meta": {
        "versionId": "1",
        "lastUpdated": "2023-04-19T10:08:14.998+00:00",
        "source": "#oJWu0e4GVIYBGY8D"
      },
      "code": {
        "coding": [ {
          "system": "http://foo",
          "code": "12345"
        } ]
      },
      "subject": {
        "reference": "Patient/597383"
      },
      "effectiveDateTime": "2023-04-19T09:34:50+01:00",
      "valueQuantity": {
        "value": 123,
        "unit": "kg",
        "system": "http://bar",
        "code": "kg"
      }
    },
    "search": {
      "mode": "include"
    }
  }, {
    "fullUrl": "https://hapi.fhir.org/baseR4/Observation/10322192",
    "resource": {
      "resourceType": "Observation",
      "id": "10322192",
      "meta": {
        "versionId": "1",
        "lastUpdated": "2023-04-19T10:08:15.025+00:00",
        "source": "#h50Ng4s0jxhtSdD9"
      },
      "code": {
        "coding": [ {
          "system": "http://foo",
          "code": "12345"
        } ]
      },
      "subject": {
        "reference": "Patient/597382"
      },
      "effectiveDateTime": "2023-04-19T09:34:50+01:00",
      "valueQuantity": {
        "value": 123,
        "unit": "kg",
        "system": "http://bar",
        "code": "kg"
      }
    },
    "search": {
      "mode": "include"
    }
  }, {
    "fullUrl": "https://hapi.fhir.org/baseR4/Observation/597404",
    "resource": {
      "resourceType": "Observation",
      "id": "597404",
      "meta": {
        "versionId": "1",
        "lastUpdated": "2020-02-04T05:30:01.280+00:00",
        "source": "#qCN9pEW6tlieLvs7"
      },
      "status": "final",
      "code": {
        "text": "averageRespitoryRate"
      },
      "subject": {
        "reference": "Patient/597395"
      },
      "effectivePeriod": {
        "start": "2020-02-04T05:30:00+00:00",
        "end": "2020-02-04T05:30:10+00:00"
      },
      "issued": "2020-02-04T05:30:01.077+00:00",
      "valueQuantity": {
        "value": 2.0,
        "unit": "RBpm"
      }
    },
    "search": {
      "mode": "include"
    }
  }, {
    "fullUrl": "https://hapi.fhir.org/baseR4/Observation/10316560",
    "resource": {
      "resourceType": "Observation",
      "id": "10316560",
      "meta": {
        "versionId": "1",
        "lastUpdated": "2023-04-19T10:05:19.546+00:00",
        "source": "#YXOZIbnzRjLtr54f"
      },
      "code": {
        "coding": [ {
          "system": "http://foo",
          "code": "12345"
        } ]
      },
      "subject": {
        "reference": "Patient/597439"
      },
      "effectiveDateTime": "2023-04-19T09:34:50+01:00",
      "valueQuantity": {
        "value": 123,
        "unit": "kg",
        "system": "http://bar",
        "code": "kg"
      }
    },
    "search": {
      "mode": "include"
    }
  }, {
    "fullUrl": "https://hapi.fhir.org/baseR4/Observation/597403",
    "resource": {
      "resourceType": "Observation",
      "id": "597403",
      "meta": {
        "versionId": "1",
        "lastUpdated": "2020-02-04T05:30:01.203+00:00",
        "source": "#pYrQ0n7jaGhUdoqL"
      },
      "status": "final",
      "code": {
        "text": "averageTemperature"
      },
      "subject": {
        "reference": "Patient/597395"
      },
      "effectivePeriod": {
        "start": "2020-02-04T05:30:00+00:00",
        "end": "2020-02-04T05:30:10+00:00"
      },
      "issued": "2020-02-04T05:30:01.077+00:00",
      "valueQuantity": {
        "value": 1.0,
        "unit": "c"
      }
    },
    "search": {
      "mode": "include"
    }
  }, {
    "fullUrl": "https://hapi.fhir.org/baseR4/Observation/10322186",
    "resource": {
      "resourceType": "Observation",
      "id": "10322186",
      "meta": {
        "versionId": "1",
        "lastUpdated": "2023-04-19T10:08:14.867+00:00",
        "source": "#UlQiCadClcmz1GOL"
      },
      "code": {
        "coding": [ {
          "system": "http://foo",
          "code": "12345"
        } ]
      },
      "subject": {
        "reference": "Patient/597385"
      },
      "effectiveDateTime": "2023-04-19T09:34:50+01:00",
      "valueQuantity": {
        "value": 123,
        "unit": "kg",
        "system": "http://bar",
        "code": "kg"
      }
    },
    "search": {
      "mode": "include"
    }
  }, {
    "fullUrl": "https://hapi.fhir.org/baseR4/Observation/10322185",
    "resource": {
      "resourceType": "Observation",
      "id": "10322185",
      "meta": {
        "versionId": "1",
        "lastUpdated": "2023-04-19T10:08:14.836+00:00",
        "source": "#gJZ1A0DD8cDXgqkQ"
      },
      "code": {
        "coding": [ {
          "system": "http://foo",
          "code": "12345"
        } ]
      },
      "subject": {
        "reference": "Patient/597389"
      },
      "effectiveDateTime": "2023-04-19T09:34:50+01:00",
      "valueQuantity": {
        "value": 123,
        "unit": "kg",
        "system": "http://bar",
        "code": "kg"
      }
    },
    "search": {
      "mode": "include"
    }
  }, {
    "fullUrl": "https://hapi.fhir.org/baseR4/Observation/597405",
    "resource": {
      "resourceType": "Observation",
      "id": "597405",
      "meta": {
        "versionId": "1",
        "lastUpdated": "2020-02-04T05:30:01.352+00:00",
        "source": "#e7abDd4Kc4lgBo3K"
      },
      "status": "final",
      "code": {
        "text": "urineVolumeDelta"
      },
      "subject": {
        "reference": "Patient/597395"
      },
      "effectivePeriod": {
        "start": "2020-02-04T05:30:00+00:00",
        "end": "2020-02-04T05:30:10+00:00"
      },
      "issued": "2020-02-04T05:30:01.077+00:00",
      "valueQuantity": {
        "value": 4.0,
        "unit": "ml"
      }
    },
    "search": {
      "mode": "include"
    }
  }, {
    "fullUrl": "https://hapi.fhir.org/baseR4/Observation/10322188",
    "resource": {
      "resourceType": "Observation",
      "id": "10322188",
      "meta": {
        "versionId": "1",
        "lastUpdated": "2023-04-19T10:08:14.966+00:00",
        "source": "#Ik6huoSAc6KaxLy9"
      },
      "code": {
        "coding": [ {
          "system": "http://foo",
          "code": "12345"
        } ]
      },
      "subject": {
        "reference": "Patient/597388"
      },
      "effectiveDateTime": "2023-04-19T09:34:50+01:00",
      "valueQuantity": {
        "value": 123,
        "unit": "kg",
        "system": "http://bar",
        "code": "kg"
      }
    },
    "search": {
      "mode": "include"
    }
  }, {
    "fullUrl": "https://hapi.fhir.org/baseR4/Device/597408",
    "resource": {
      "resourceType": "Device",
      "id": "597408",
      "meta": {
        "versionId": "1",
        "lastUpdated": "2020-02-04T05:30:01.659+00:00",
        "source": "#6MwGcJ0UvFyoEGOL"
      },
      "identifier": [ {
        "value": "00868475000235-fb41d137-eaff-4355-9f59-41c9f6b7ae75"
      } ],
      "patient": {
        "reference": "Patient/597407"
      }
    },
    "search": {
      "mode": "include"
    }
  }, {
    "fullUrl": "https://hapi.fhir.org/baseR4/Observation/10321669",
    "resource": {
      "resourceType": "Observation",
      "id": "10321669",
      "meta": {
        "versionId": "1",
        "lastUpdated": "2023-04-19T10:07:59.036+00:00",
        "source": "#kcBvTBUtE8ldeZGw"
      },
      "code": {
        "coding": [ {
          "system": "http://foo",
          "code": "12345"
        } ]
      },
      "subject": {
        "reference": "Patient/597414"
      },
      "effectiveDateTime": "2023-04-19T09:34:50+01:00",
      "valueQuantity": {
        "value": 123,
        "unit": "kg",
        "system": "http://bar",
        "code": "kg"
      }
    },
    "search": {
      "mode": "include"
    }
  }, {
    "fullUrl": "https://hapi.fhir.org/baseR4/Observation/10322184",
    "resource": {
      "resourceType": "Observation",
      "id": "10322184",
      "meta": {
        "versionId": "1",
        "lastUpdated": "2023-04-19T10:08:14.836+00:00",
        "source": "#DC2QIX6xGfvZ1O58"
      },
      "code": {
        "coding": [ {
          "system": "http://foo",
          "code": "12345"
        } ]
      },
      "subject": {
        "reference": "Patient/597386"
      },
      "effectiveDateTime": "2023-04-19T09:34:50+01:00",
      "valueQuantity": {
        "value": 123,
        "unit": "kg",
        "system": "http://bar",
        "code": "kg"
      }
    },
    "search": {
      "mode": "include"
    }
  }, {
    "fullUrl": "https://hapi.fhir.org/baseR4/Device/597396",
    "resource": {
      "resourceType": "Device",
      "id": "597396",
      "meta": {
        "versionId": "1",
        "lastUpdated": "2020-02-04T05:29:59.958+00:00",
        "source": "#cya1ePsJTNO0Ic4T"
      },
      "identifier": [ {
        "value": "00868475000235-c5b1b456-5577-491f-862d-1153f9081a96"
      } ],
      "patient": {
        "reference": "Patient/597395"
      }
    },
    "search": {
      "mode": "include"
    }
  }, {
    "fullUrl": "https://hapi.fhir.org/baseR4/Observation/10317117",
    "resource": {
      "resourceType": "Observation",
      "id": "10317117",
      "meta": {
        "versionId": "1",
        "lastUpdated": "2023-04-19T10:05:37.878+00:00",
        "source": "#xqQx3OqDsiFv5yfN"
      },
      "code": {
        "coding": [ {
          "system": "http://foo",
          "code": "12345"
        } ]
      },
      "subject": {
        "reference": "Patient/597359"
      },
      "effectiveDateTime": "2023-04-19T09:34:50+01:00",
      "valueQuantity": {
        "value": 123,
        "unit": "kg",
        "system": "http://bar",
        "code": "kg"
      }
    },
    "search": {
      "mode": "include"
    }
  }, {
    "fullUrl": "https://hapi.fhir.org/baseR4/Device/597424",
    "resource": {
      "resourceType": "Device",
      "id": "597424",
      "meta": {
        "versionId": "1",
        "lastUpdated": "2020-02-04T05:30:05.673+00:00",
        "source": "#k1bwZFBsYYl4UWUZ"
      },
      "identifier": [ {
        "value": "00868475000235-75f28db2-ede3-4d7f-8a6d-a1e12d9ea2f4"
      } ],
      "patient": {
        "reference": "Patient/597423"
      }
    },
    "search": {
      "mode": "include"
    }
  }, {
    "fullUrl": "https://hapi.fhir.org/baseR4/Observation/10316597",
    "resource": {
      "resourceType": "Observation",
      "id": "10316597",
      "meta": {
        "versionId": "1",
        "lastUpdated": "2023-04-19T10:05:20.961+00:00",
        "source": "#mKl5mm90yGM1SgVV"
      },
      "code": {
        "coding": [ {
          "system": "http://foo",
          "code": "12345"
        } ]
      },
      "subject": {
        "reference": "Patient/597458"
      },
      "effectiveDateTime": "2023-04-19T09:34:50+01:00",
      "valueQuantity": {
        "value": 123,
        "unit": "kg",
        "system": "http://bar",
        "code": "kg"
      }
    },
    "search": {
      "mode": "include"
    }
  }, {
    "fullUrl": "https://hapi.fhir.org/baseR4/Observation/10316593",
    "resource": {
      "resourceType": "Observation",
      "id": "10316593",
      "meta": {
        "versionId": "1",
        "lastUpdated": "2023-04-19T10:05:20.885+00:00",
        "source": "#pv8Rm3JMAg5wXLja"
      },
      "code": {
        "coding": [ {
          "system": "http://foo",
          "code": "12345"
        } ]
      },
      "subject": {
        "reference": "Patient/597459"
      },
      "effectiveDateTime": "2023-04-19T09:34:50+01:00",
      "valueQuantity": {
        "value": 123,
        "unit": "kg",
        "system": "http://bar",
        "code": "kg"
      }
    },
    "search": {
      "mode": "include"
    }
  }, {
    "fullUrl": "https://hapi.fhir.org/baseR4/Device/597416",
    "resource": {
      "resourceType": "Device",
      "id": "597416",
      "meta": {
        "versionId": "1",
        "lastUpdated": "2020-02-04T05:30:02.434+00:00",
        "source": "#oFz0ju8YmawHswW3"
      },
      "identifier": [ {
        "value": "00868475000235-c364f8d2-ff28-411d-b622-09ad70f76a8b"
      } ],
      "patient": {
        "reference": "Patient/597415"
      }
    },
    "search": {
      "mode": "include"
    }
  }, {
    "fullUrl": "https://hapi.fhir.org/baseR4/Observation/10321716",
    "resource": {
      "resourceType": "Observation",
      "id": "10321716",
      "meta": {
        "versionId": "1",
        "lastUpdated": "2023-04-19T10:08:00.950+00:00",
        "source": "#KBBaYnUM7c4z3sNS"
      },
      "code": {
        "coding": [ {
          "system": "http://foo",
          "code": "12345"
        } ]
      },
      "subject": {
        "reference": "Patient/597422"
      },
      "effectiveDateTime": "2023-04-19T09:34:50+01:00",
      "valueQuantity": {
        "value": 123,
        "unit": "kg",
        "system": "http://bar",
        "code": "kg"
      }
    },
    "search": {
      "mode": "include"
    }
  }, {
    "fullUrl": "https://hapi.fhir.org/baseR4/Observation/10316585",
    "resource": {
      "resourceType": "Observation",
      "id": "10316585",
      "meta": {
        "versionId": "1",
        "lastUpdated": "2023-04-19T10:05:20.588+00:00",
        "source": "#iXdyzB95bhN6A3YM"
      },
      "code": {
        "coding": [ {
          "system": "http://foo",
          "code": "12345"
        } ]
      },
      "subject": {
        "reference": "Patient/597447"
      },
      "effectiveDateTime": "2023-04-19T09:34:50+01:00",
      "valueQuantity": {
        "value": 123,
        "unit": "kg",
        "system": "http://bar",
        "code": "kg"
      }
    },
    "search": {
      "mode": "include"
    }
  }, {
    "fullUrl": "https://hapi.fhir.org/baseR4/Device/597440",
    "resource": {
      "resourceType": "Device",
      "id": "597440",
      "meta": {
        "versionId": "1",
        "lastUpdated": "2020-02-04T05:30:07.064+00:00",
        "source": "#rS5XdjjWornLkn19"
      },
      "identifier": [ {
        "value": "00868475000235-d8d3eb65-c423-4df6-8bf8-7e8a28fb5d2b"
      } ],
      "patient": {
        "reference": "Patient/597439"
      }
    },
    "search": {
      "mode": "include"
    }
  }, {
    "fullUrl": "https://hapi.fhir.org/baseR4/Observation/10316581",
    "resource": {
      "resourceType": "Observation",
      "id": "10316581",
      "meta": {
        "versionId": "1",
        "lastUpdated": "2023-04-19T10:05:20.587+00:00",
        "source": "#XAKBQIrQRjMK3a60"
      },
      "code": {
        "coding": [ {
          "system": "http://foo",
          "code": "12345"
        } ]
      },
      "subject": {
        "reference": "Patient/597446"
      },
      "effectiveDateTime": "2023-04-19T09:34:50+01:00",
      "valueQuantity": {
        "value": 123,
        "unit": "kg",
        "system": "http://bar",
        "code": "kg"
      }
    },
    "search": {
      "mode": "include"
    }
  }, {
    "fullUrl": "https://hapi.fhir.org/baseR4/Observation/10321704",
    "resource": {
      "resourceType": "Observation",
      "id": "10321704",
      "meta": {
        "versionId": "1",
        "lastUpdated": "2023-04-19T10:08:00.789+00:00",
        "source": "#0nzBBkw8fAXQ9OM2"
      },
      "code": {
        "coding": [ {
          "system": "http://foo",
          "code": "12345"
        } ]
      },
      "subject": {
        "reference": "Patient/597423"
      },
      "effectiveDateTime": "2023-04-19T09:34:50+01:00",
      "valueQuantity": {
        "value": 123,
        "unit": "kg",
        "system": "http://bar",
        "code": "kg"
      }
    },
    "search": {
      "mode": "include"
    }
  }, {
    "fullUrl": "https://hapi.fhir.org/baseR4/Device/597432",
    "resource": {
      "resourceType": "Device",
      "id": "597432",
      "meta": {
        "versionId": "1",
        "lastUpdated": "2020-02-04T05:30:06.364+00:00",
        "source": "#VBwsMyPManGQoXmW"
      },
      "identifier": [ {
        "value": "00868475000235-a9a58ce9-cba0-463f-b4ca-48c19990b098"
      } ],
      "patient": {
        "reference": "Patient/597431"
      }
    },
    "search": {
      "mode": "include"
    }
  }, {
    "fullUrl": "https://hapi.fhir.org/baseR4/Observation/10316640",
    "resource": {
      "resourceType": "Observation",
      "id": "10316640",
      "meta": {
        "versionId": "1",
        "lastUpdated": "2023-04-19T10:05:22.290+00:00",
        "source": "#LqtK0CACgMF7RyGs"
      },
      "code": {
        "coding": [ {
          "system": "http://foo",
          "code": "12345"
        } ]
      },
      "subject": {
        "reference": "Patient/597407"
      },
      "effectiveDateTime": "2023-04-19T09:34:50+01:00",
      "valueQuantity": {
        "value": 123,
        "unit": "kg",
        "system": "http://bar",
        "code": "kg"
      }
    },
    "search": {
      "mode": "include"
    }
  }, {
    "fullUrl": "https://hapi.fhir.org/baseR4/Observation/10317145",
    "resource": {
      "resourceType": "Observation",
      "id": "10317145",
      "meta": {
        "versionId": "1",
        "lastUpdated": "2023-04-19T10:05:38.597+00:00",
        "source": "#hlMIu5lSZMCFS4wj"
      },
      "code": {
        "coding": [ {
          "system": "http://foo",
          "code": "12345"
        } ]
      },
      "subject": {
        "reference": "Patient/597366"
      },
      "effectiveDateTime": "2023-04-19T09:34:50+01:00",
      "valueQuantity": {
        "value": 123,
        "unit": "kg",
        "system": "http://bar",
        "code": "kg"
      }
    },
    "search": {
      "mode": "include"
    }
  }, {
    "fullUrl": "https://hapi.fhir.org/baseR4/Observation/10317148",
    "resource": {
      "resourceType": "Observation",
      "id": "10317148",
      "meta": {
        "versionId": "1",
        "lastUpdated": "2023-04-19T10:05:38.719+00:00",
        "source": "#5eiStYBh1DaiMs8r"
      },
      "code": {
        "coding": [ {
          "system": "http://foo",
          "code": "12345"
        } ]
      },
      "subject": {
        "reference": "Patient/597362"
      },
      "effectiveDateTime": "2023-04-19T09:34:50+01:00",
      "valueQuantity": {
        "value": 123,
        "unit": "kg",
        "system": "http://bar",
        "code": "kg"
      }
    },
    "search": {
      "mode": "include"
    }
  }, {
    "fullUrl": "https://hapi.fhir.org/baseR4/Observation/10317142",
    "resource": {
      "resourceType": "Observation",
      "id": "10317142",
      "meta": {
        "versionId": "1",
        "lastUpdated": "2023-04-19T10:05:38.554+00:00",
        "source": "#c73fTZtyCshLBvAn"
      },
      "code": {
        "coding": [ {
          "system": "http://foo",
          "code": "12345"
        } ]
      },
      "subject": {
        "reference": "Patient/597368"
      },
      "effectiveDateTime": "2023-04-19T09:34:50+01:00",
      "valueQuantity": {
        "value": 123,
        "unit": "kg",
        "system": "http://bar",
        "code": "kg"
      }
    },
    "search": {
      "mode": "include"
    }
  }, {
    "fullUrl": "https://hapi.fhir.org/baseR4/Observation/10317141",
    "resource": {
      "resourceType": "Observation",
      "id": "10317141",
      "meta": {
        "versionId": "1",
        "lastUpdated": "2023-04-19T10:05:38.529+00:00",
        "source": "#kLAgaIb3jVo1bWMj"
      },
      "code": {
        "coding": [ {
          "system": "http://foo",
          "code": "12345"
        } ]
      },
      "subject": {
        "reference": "Patient/597369"
      },
      "effectiveDateTime": "2023-04-19T09:34:50+01:00",
      "valueQuantity": {
        "value": 123,
        "unit": "kg",
        "system": "http://bar",
        "code": "kg"
      }
    },
    "search": {
      "mode": "include"
    }
  }, {
    "fullUrl": "https://hapi.fhir.org/baseR4/Observation/10317144",
    "resource": {
      "resourceType": "Observation",
      "id": "10317144",
      "meta": {
        "versionId": "1",
        "lastUpdated": "2023-04-19T10:05:38.578+00:00",
        "source": "#6bFQuBjJFV86GjGG"
      },
      "code": {
        "coding": [ {
          "system": "http://foo",
          "code": "12345"
        } ]
      },
      "subject": {
        "reference": "Patient/597367"
      },
      "effectiveDateTime": "2023-04-19T09:34:50+01:00",
      "valueQuantity": {
        "value": 123,
        "unit": "kg",
        "system": "http://bar",
        "code": "kg"
      }
    },
    "search": {
      "mode": "include"
    }
  }, {
    "fullUrl": "https://hapi.fhir.org/baseR4/Observation/10317143",
    "resource": {
      "resourceType": "Observation",
      "id": "10317143",
      "meta": {
        "versionId": "1",
        "lastUpdated": "2023-04-19T10:05:38.578+00:00",
        "source": "#hK1848om3gqMmphq"
      },
      "code": {
        "coding": [ {
          "system": "http://foo",
          "code": "12345"
        } ]
      },
      "subject": {
        "reference": "Patient/597364"
      },
      "effectiveDateTime": "2023-04-19T09:34:50+01:00",
      "valueQuantity": {
        "value": 123,
        "unit": "kg",
        "system": "http://bar",
        "code": "kg"
      }
    },
    "search": {
      "mode": "include"
    }
  }, {
    "fullUrl": "https://hapi.fhir.org/baseR4/Observation/10316625",
    "resource": {
      "resourceType": "Observation",
      "id": "10316625",
      "meta": {
        "versionId": "1",
        "lastUpdated": "2023-04-19T10:05:21.882+00:00",
        "source": "#AI8I7UGOCCS1Hrn8"
      },
      "code": {
        "coding": [ {
          "system": "http://foo",
          "code": "12345"
        } ]
      },
      "subject": {
        "reference": "Patient/597462"
      },
      "effectiveDateTime": "2023-04-19T09:34:50+01:00",
      "valueQuantity": {
        "value": 123,
        "unit": "kg",
        "system": "http://bar",
        "code": "kg"
      }
    },
    "search": {
      "mode": "include"
    }
  }, {
    "fullUrl": "https://hapi.fhir.org/baseR4/Device/597448",
    "resource": {
      "resourceType": "Device",
      "id": "597448",
      "meta": {
        "versionId": "1",
        "lastUpdated": "2020-02-04T05:30:07.739+00:00",
        "source": "#2lYmZiu2GtMlWKLN"
      },
      "identifier": [ {
        "value": "00868475000235-ded88720-b77b-4d61-afa5-4c2a136ce101"
      } ],
      "patient": {
        "reference": "Patient/597447"
      }
    },
    "search": {
      "mode": "include"
    }
  }, {
    "fullUrl": "https://hapi.fhir.org/baseR4/Observation/10317139",
    "resource": {
      "resourceType": "Observation",
      "id": "10317139",
      "meta": {
        "versionId": "1",
        "lastUpdated": "2023-04-19T10:05:38.475+00:00",
        "source": "#y2GFo8G8FUHTxi3v"
      },
      "code": {
        "coding": [ {
          "system": "http://foo",
          "code": "12345"
        } ]
      },
      "subject": {
        "reference": "Patient/597365"
      },
      "effectiveDateTime": "2023-04-19T09:34:50+01:00",
      "valueQuantity": {
        "value": 123,
        "unit": "kg",
        "system": "http://bar",
        "code": "kg"
      }
    },
    "search": {
      "mode": "include"
    }
  }, {
    "fullUrl": "https://hapi.fhir.org/baseR4/Observation/10316624",
    "resource": {
      "resourceType": "Observation",
      "id": "10316624",
      "meta": {
        "versionId": "1",
        "lastUpdated": "2023-04-19T10:05:21.860+00:00",
        "source": "#ps8TnCK5CDWeVGV1"
      },
      "code": {
        "coding": [ {
          "system": "http://foo",
          "code": "12345"
        } ]
      },
      "subject": {
        "reference": "Patient/597460"
      },
      "effectiveDateTime": "2023-04-19T09:34:50+01:00",
      "valueQuantity": {
        "value": 123,
        "unit": "kg",
        "system": "http://bar",
        "code": "kg"
      }
    },
    "search": {
      "mode": "include"
    }
  }, {
    "fullUrl": "https://hapi.fhir.org/baseR4/Observation/10316623",
    "resource": {
      "resourceType": "Observation",
      "id": "10316623",
      "meta": {
        "versionId": "1",
        "lastUpdated": "2023-04-19T10:05:21.837+00:00",
        "source": "#WapbX8o0H90JQydQ"
      },
      "code": {
        "coding": [ {
          "system": "http://foo",
          "code": "12345"
        } ]
      },
      "subject": {
        "reference": "Patient/597461"
      },
      "effectiveDateTime": "2023-04-19T09:34:50+01:00",
      "valueQuantity": {
        "value": 123,
        "unit": "kg",
        "system": "http://bar",
        "code": "kg"
      }
    },
    "search": {
      "mode": "include"
    }
  }, {
    "fullUrl": "https://hapi.fhir.org/baseR4/Observation/10317125",
    "resource": {
      "resourceType": "Observation",
      "id": "10317125",
      "meta": {
        "versionId": "1",
        "lastUpdated": "2023-04-19T10:05:38.101+00:00",
        "source": "#TOMDX7QW1Qs19MYN"
      },
      "code": {
        "coding": [ {
          "system": "http://foo",
          "code": "12345"
        } ]
      },
      "subject": {
        "reference": "Patient/597352"
      },
      "effectiveDateTime": "2023-04-19T09:34:50+01:00",
      "valueQuantity": {
        "value": 123,
        "unit": "kg",
        "system": "http://bar",
        "code": "kg"
      }
    },
    "search": {
      "mode": "include"
    }
  }, {
    "fullUrl": "https://hapi.fhir.org/baseR4/Practitioner/example",
    "resource": {
      "resourceType": "Practitioner",
      "id": "example",
      "meta": {
        "versionId": "10",
        "lastUpdated": "2025-07-18T02:48:17.617+00:00",
        "source": "#A5WB0htMs5V1Nkrk",
        "security": [ {
          "system": "http://essai.abcfg.com/",
          "code": "code1",
          "display": "coded1"
        } ],
        "tag": [ {
          "system": "http://essai.abcfg.com/",
          "code": "tag1",
          "display": "tagd1"
        } ]
      },
      "identifier": [ {
        "system": "http://example.com/practitioner-ids",
        "value": "12345"
      } ],
      "active": true,
      "name": [ {
        "family": "Smith",
        "given": [ "John", "A" ]
      } ],
      "telecom": [ {
        "system": "phone",
        "value": "555-123-4567",
        "use": "work"
      } ]
    },
    "search": {
      "mode": "include"
    }
  } ]
}